{
  "resourceType": "Bundle",
  "id": "Example-Batch-Bundle",
  "meta": {
    "profile": [
      "http://hl7.org/fhir/ca-bc/provider/StructureDefinition/bc-batch-bundle"
    ]
  },
  "type": "batch",
  "entry": [
    {
      "fullUrl": "urn:uuid:afe28d6d-4db2-49aa-96af-c115cdfc108c",
      "resource": {
        "resourceType": "Bundle",
        "id": "Example-AddPractitioner-Bundle",
        "meta": {
          "profile": [
            "http://hl7.org/fhir/ca-bc/provider/StructureDefinition/bc-practitioner-bundle"
          ]
        },
        "type": "collection",
        "entry": [
          {
            "fullUrl": "urn:uuid:67b11c73-c2ee-474f-ab64-56b863a1cc87",
            "resource": {
              "resourceType": "Practitioner",
              "id": "Example-Practitioner",
              "meta": {
                "profile": [
                  "http://hl7.org/fhir/ca-bc/provider/StructureDefinition/bc-practitioner"
                ]
              },
              "contained": [
                {
                  "resourceType": "Organization",
                  "id": "grantingInstitution",
                  "meta": {
                    "profile": [
                      "http://hl7.org/fhir/ca-bc/provider/StructureDefinition/bc-organization"
                    ]
                  },
                  "name": "University of Calgary",
                  "address": [
                    {
                      "city": "CALGARY",
                      "state": "AB",
                      "country": "CA"
                    }
                  ]
                }
              ],
              "extension": [
                {
                  "url": "http://hl7.org/fhir/ca-bc/provider/StructureDefinition/bc-period-extension",
                  "valuePeriod": {
                    "start": "2012-12-07"
                  }
                },
                {
                  "url": "http://hl7.org/fhir/ca-bc/provider/StructureDefinition/bc-birthplace-extension",
                  "valueAddress": {
                    "city": "Ottawa",
                    "country": "CA"
                  }
                },
                {
                  "extension": [
                    {
                      "url": "statusCode",
                      "valueCodeableConcept": {
                        "coding": [
                          {
                            "system": "http://terminology.hl7.org/CodeSystem/v3-RoleStatus",
                            "code": "suspended"
                          }
                        ]
                      }
                    },
                    {
                      "url": "statusReasonCode",
                      "valueCodeableConcept": {
                        "coding": [
                          {
                            "system": "https://plr.hlth.gov.bc.ca/plr/codes/bc-status-reason-code",
                            "code": "LTP"
                          }
                        ]
                      }
                    },
                    {
                      "url": "period",
                      "valuePeriod": {
                        "start": "2022-06-24"
                      }
                    }
                  ],
                  "url": "http://hl7.org/fhir/ca-bc/provider/StructureDefinition/bc-license-status-extension"
                },
                {
                  "extension": [
                    {
                      "url": "identifier",
                      "valueIdentifier": {
                        "value": "DA-1"
                      }
                    },
                    {
                      "url": "description",
                      "valueString": "Description"
                    },
                    {
                      "url": "archiveDate",
                      "valueDateTime": "2000-01-01"
                    },
                    {
                      "url": "http://hl7.org/fhir/ca-bc/provider/StructureDefinition/bc-period-extension",
                      "valuePeriod": {
                        "start": "1998-01-02"
                      }
                    },
                    {
                      "url": "displayFlag",
                      "valueBoolean": false
                    }
                  ],
                  "url": "http://hl7.org/fhir/ca-bc/provider/StructureDefinition/bc-practitioner-disciplinary-action-extension"
                },
                {
                  "extension": [
                    {
                      "url": "identifier",
                      "valueIdentifier": {
                        "system": "https://plr.hlth.gov.bc.ca/plr/codes/bc-note-id",
                        "value": "Note-2"
                      }
                    },
                    {
                      "url": "text",
                      "valueString": "Note text"
                    },
                    {
                      "url": "http://hl7.org/fhir/ca-bc/provider/StructureDefinition/bc-period-extension",
                      "valuePeriod": {
                        "start": "1998-01-02"
                      }
                    }
                  ],
                  "url": "http://hl7.org/fhir/ca-bc/provider/StructureDefinition/bc-note-extension"
                },
                {
                  "extension": [
                    {
                      "url": "identifier",
                      "valueIdentifier": {
                        "system": "https://plr.hlth.gov.bc.ca/plr/codes/bc-condition-id",
                        "value": "Condition-1"
                      }
                    },
                    {
                      "url": "restriction",
                      "valueBoolean": false
                    },
                    {
                      "url": "restrictionText",
                      "valueString": "Restriction text"
                    },
                    {
                      "url": "code",
                      "valueCodeableConcept": {
                        "coding": [
                          {
                            "system": "https://plr.hlth.gov.bc.ca/plr/codes/bc-condition-type-code",
                            "code": "EXP"
                          }
                        ]
                      }
                    },
                    {
                      "url": "http://hl7.org/fhir/ca-bc/provider/StructureDefinition/bc-period-extension",
                      "valuePeriod": {
                        "start": "1998-01-02"
                      }
                    }
                  ],
                  "url": "http://hl7.org/fhir/ca-bc/provider/StructureDefinition/bc-practitioner-condition-extension"
                },
                {
                  "extension": [
                    {
                      "url": "http://hl7.org/fhir/ca-bc/provider/StructureDefinition/bc-period-extension",
                      "valuePeriod": {
                        "start": "2000-01-01",
                        "end": "2020-01-01"
                      }
                    },
                    {
                      "url": "code",
                      "valueCodeableConcept": {
                        "coding": [
                          {
                            "system": "http://terminology.hl7.org/CodeSystem/v3-Confidentiality",
                            "code": "R"
                          }
                        ]
                      }
                    }
                  ],
                  "url": "http://hl7.org/fhir/ca-bc/provider/StructureDefinition/bc-practitioner-confidentiality-extension"
                },
                {
                  "extension": [
                    {
                      "url": "http://hl7.org/fhir/ca-bc/provider/StructureDefinition/bc-period-extension",
                      "valuePeriod": {
                        "start": "2022-06-30"
                      }
                    },
                    {
                      "url": "practitioner",
                      "valueReference": {
                        "identifier": {
                          "system": "https://plr.hlth.gov.bc.ca/plr/identifier-system/IPC",
                          "value": "IPC.00763483.BC.PRS",
                          "period": {
                            "start": "2000-01-01"
                          }
                        }
                      }
                    },
                    {
                      "url": "http://hl7.org/fhir/ca-bc/provider/StructureDefinition/bc-relationship-type-extension",
                      "valueCodeableConcept": {
                        "coding": [
                          {
                            "system": "https://plr.hlth.gov.bc.ca/plr/codes/bc-relationship-type-code",
                            "code": "WORKSAT"
                          }
                        ]
                      }
                    }
                  ],
                  "url": "http://hl7.org/fhir/ca-bc/provider/StructureDefinition/bc-practitioner-relationship-extension"
                }
              ],
              "identifier": [
                {
                  "system": "https://plr.hlth.gov.bc.ca/plr/identifier-system/IPC",
                  "value": "IPC.00147422.BC.PRS",
                  "period": {
                    "start": "2000-01-01"
                  }
                }
              ],
              "name": [
                {
                  "use": "official",
                  "family": "FamilyName",
                  "given": [
                    "GivenName"
                  ],
                  "period": {
                    "start": "2012-12-07"
                  }
                }
              ],
              "telecom": [
                {
                  "extension": [
                    {
                      "url": "http://hl7.org/fhir/StructureDefinition/contactpoint-area",
                      "valueString": "250"
                    },
                    {
                      "url": "http://hl7.org/fhir/StructureDefinition/contactpoint-country",
                      "valueString": "1"
                    },
                    {
                      "url": "http://hl7.org/fhir/StructureDefinition/contactpoint-local",
                      "valueString": "1112234"
                    },
                    {
                      "url": "http://hl7.org/fhir/StructureDefinition/contactpoint-extension",
                      "valueString": "3432"
                    },
                    {
                      "url": "http://hl7.org/fhir/ca-bc/provider/StructureDefinition/bc-communication-purpose-code-extension",
                      "valueCodeableConcept": {
                        "coding": [
                          {
                            "system": "https://plr.hlth.gov.bc.ca/plr/codes/bc-communication-purpose-code",
                            "code": "BC"
                          }
                        ]
                      }
                    }
                  ],
                  "system": "phone",
                  "period": {
                    "start": "2000-02-02"
                  }
                }
              ],
              "address": [
                {
                  "extension": [
                    {
                      "url": "http://hl7.org/fhir/ca-bc/provider/StructureDefinition/bc-communication-purpose-code-extension",
                      "valueCodeableConcept": {
                        "coding": [
                          {
                            "system": "https://plr.hlth.gov.bc.ca/plr/codes/bc-communication-purpose-code",
                            "code": "BC"
                          }
                        ]
                      }
                    },
                    {
                      "url": "http://hl7.org/fhir/ca-bc/provider/StructureDefinition/bc-address-validation-status-extension",
                      "valueCodeableConcept": {
                        "coding": [
                          {
                            "system": "https://plr.hlth.gov.bc.ca/plr/codes/bc-address-validation-status-code",
                            "code": "V"
                          }
                        ]
                      }
                    }
                  ],
                  "type": "postal",
                  "line": [
                    "19 ST",
                    "ADDRESS ADDRESSLINE2TXT",
                    "ADDRESS ADDRESSLINE3TXT"
                  ],
                  "city": "VICTORIA",
                  "state": "BC",
                  "postalCode": "V6P7B8",
                  "country": "CA",
                  "period": {
                    "start": "2000-01-01"
                  }
                }
              ],
              "gender": "male",
              "birthDate": "1934-01-02",
              "_birthDate": {
                "extension": [
                  {
                    "url": "http://hl7.org/fhir/ca-bc/provider/StructureDefinition/bc-birthtime-extension",
                    "valueDateTime": "1951-11-12T00:00:01-06:00"
                  }
                ]
              },
              "qualification": [
                {
                  "extension": [
                    {
                      "extension": [
                        {
                          "url": "designation",
                          "valueString": "Designation"
                        },
                        {
                          "url": "equivalencyFlag",
                          "valueBoolean": false
                        },
                        {
                          "url": "registrationNumber",
                          "valueString": "Registration No."
                        },
                        {
                          "url": "issuedDate",
                          "valueDateTime": "2000-02-03"
                        }
                      ],
                      "url": "http://hl7.org/fhir/ca-bc/provider/StructureDefinition/bc-practitioner-qualification-extension"
                    }
                  ],
                  "code": {
                    "coding": [
                      {
                        "system": "https://fhir.infoway-inforoute.ca/CodeSystem/scpqual",
                        "code": "BD"
                      }
                    ]
                  },
                  "period": {
                    "start": "2000-01-01"
                  },
                  "issuer": {
                    "reference": "#grantingInstitution"
                  }
                }
              ],
              "communication": [
                {
                  "extension": [
                    {
                      "url": "http://hl7.org/fhir/ca-bc/provider/StructureDefinition/bc-period-extension",
                      "valuePeriod": {
                        "start": "2000-01-01"
                      }
                    },
                    {
                      "url": "http://hl7.org/fhir/ca-bc/provider/StructureDefinition/bc-specialty-source-extension",
                      "valueString": "Language Source"
                    }
                  ],
                  "coding": [
                    {
                      "system": "https://plr.hlth.gov.bc.ca/plr/codes/bc-language-code",
                      "code": "EN"
                    }
                  ]
                }
              ]
            }
          },
          {
            "fullUrl": "urn:uuid:e46a70b4-d0b9-4770-8ff6-989f4f847dc6",
            "resource": {
              "resourceType": "PractitionerRole",
              "id": "Example-PractitionerRole-1-Role-FromPractitioner",
              "meta": {
                "profile": [
                  "http://hl7.org/fhir/ca-bc/provider/StructureDefinition/bc-practitioner-role"
                ]
              },
              "practitioner": {
                "reference": "urn:uuid:67b11c73-c2ee-474f-ab64-56b863a1cc87"
              },
              "organization": {
                "display": "BC"
              },
              "code": [
                {
                  "coding": [
                    {
                      "system": "https://fhir.infoway-inforoute.ca/CodeSystem/scptype",
                      "code": "MD"
                    }
                  ]
                }
              ],
              "specialty": [
                {
                  "extension": [
                    {
                      "url": "http://hl7.org/fhir/ca-bc/provider/StructureDefinition/bc-period-extension",
                      "valuePeriod": {
                        "start": "2000-01-01",
                        "end": "2020-01-01"
                      }
                    },
                    {
                      "url": "http://hl7.org/fhir/ca-bc/provider/StructureDefinition/bc-specialty-source-extension",
                      "valueString": "Expertise source"
                    }
                  ],
                  "coding": [
                    {
                      "system": "https://fhir.infoway-inforoute.ca/CodeSystem/scpqual",
                      "code": "AMD53"
                    }
                  ]
                }
              ]
            }
          },
          {
            "fullUrl": "urn:uuid:e06c8673-ddf5-4190-ba1e-dd43923a66c7",
            "resource": {
              "resourceType": "PractitionerRole",
              "id": "Example-PractitionerRole-2-OrgRef-FromPractitioner",
              "meta": {
                "profile": [
                  "http://hl7.org/fhir/ca-bc/provider/StructureDefinition/bc-practitioner-role"
                ]
              },
              "period": {
                "start": "2000-01-01"
              },
              "practitioner": {
                "reference": "urn:uuid:67b11c73-c2ee-474f-ab64-56b863a1cc87"
              },
              "organization": {
                "extension": [
                  {
                    "url": "http://hl7.org/fhir/ca-bc/provider/StructureDefinition/bc-relationship-type-extension",
                    "valueCodeableConcept": {
                      "coding": [
                        {
                          "system": "https://plr.hlth.gov.bc.ca/plr/codes/bc-relationship-type-code",
                          "code": "EMPLOYEE"
                        }
                      ]
                    }
                  }
                ],
                "identifier": {
                  "system": "https://plr.hlth.gov.bc.ca/plr/identifier-system/IPC",
                  "value": "IPC.00147433.BC.PRS",
                  "period": {
                    "start": "2000-01-01"
                  }
                }
              }
            }
          },
          {
            "fullUrl": "urn:uuid:529cd77a-8f57-4d2d-bf3d-38dc3c2c4ec9",
            "resource": {
              "resourceType": "PractitionerRole",
              "id": "Example-PractitionerRole-3-LocRef-FromPractitioner",
              "meta": {
                "profile": [
                  "http://hl7.org/fhir/ca-bc/provider/StructureDefinition/bc-practitioner-role"
                ]
              },
              "period": {
                "start": "2000-01-01"
              },
              "practitioner": {
                "reference": "urn:uuid:67b11c73-c2ee-474f-ab64-56b863a1cc87"
              },
              "location": [
                {
                  "extension": [
                    {
                      "url": "http://hl7.org/fhir/ca-bc/provider/StructureDefinition/bc-location-relationship-type-extension",
                      "valueCodeableConcept": {
                        "coding": [
                          {
                            "system": "https://plr.hlth.gov.bc.ca/plr/codes/bc-location-relationship-type-code",
                            "code": "WORKSAT"
                          }
                        ]
                      }
                    }
                  ],
                  "identifier": {
                    "system": "https://plr.hlth.gov.bc.ca/plr/identifier-system/IFC",
                    "value": "IFC.00147422.BC.PRS",
                    "period": {
                      "start": "2000-01-01"
                    }
                  }
                }
              ]
            }
          }
        ]
      },
      "request": {
        "method": "PUT",
        "url": "http://plr.moh.bc.ca/fhir/Bundle"
      }
    },
    {
      "fullUrl": "urn:uuid:ddab2257-0829-4e5d-a5b7-b6c24dcdb7b8",
      "resource": {
        "resourceType": "Bundle",
        "id": "Example-AddOrganization-Bundle",
        "meta": {
          "profile": [
            "http://hl7.org/fhir/ca-bc/provider/StructureDefinition/bc-organization-bundle"
          ]
        },
        "type": "collection",
        "entry": [
          {
            "fullUrl": "urn:uuid:e24cfa57-5e07-4e5b-b229-0e65c74de7bf",
            "resource": {
              "resourceType": "Organization",
              "id": "Example-Organization-1",
              "meta": {
                "profile": [
                  "http://hl7.org/fhir/ca-bc/provider/StructureDefinition/bc-organization"
                ]
              },
              "extension": [
                {
                  "extension": [
                    {
                      "url": "identifier",
                      "valueIdentifier": {
                        "system": "https://plr.hlth.gov.bc.ca/plr/codes/bc-note-id",
                        "value": "Note-2"
                      }
                    },
                    {
                      "url": "text",
                      "valueString": "Note text"
                    },
                    {
                      "url": "http://hl7.org/fhir/ca-bc/provider/StructureDefinition/bc-period-extension",
                      "valuePeriod": {
                        "start": "1998-01-02"
                      }
                    }
                  ],
                  "url": "http://hl7.org/fhir/ca-bc/provider/StructureDefinition/bc-note-extension"
                }
              ],
              "identifier": [
                {
                  "system": "https://plr.hlth.gov.bc.ca/plr/identifier-system/ORGID",
                  "value": "123123123",
                  "period": {
                    "start": "2000-01-01"
                  }
                }
              ],
              "active": true,
              "name": "Kelowna Clinic",
              "_name": {
                "extension": [
                  {
                    "url": "http://hl7.org/fhir/ca-bc/provider/StructureDefinition/bc-name-use-extension",
                    "valueCode": "official"
                  },
                  {
                    "url": "http://hl7.org/fhir/ca-bc/provider/StructureDefinition/bc-period-extension",
                    "valuePeriod": {
                      "start": "2014-01-31T00:00:00-07:00"
                    }
                  }
                ]
              },
              "alias": [
                "ABC Clinic - Kelowna"
              ],
              "telecom": [
                {
                  "extension": [
                    {
                      "url": "http://hl7.org/fhir/StructureDefinition/contactpoint-area",
                      "valueString": "250"
                    },
                    {
                      "url": "http://hl7.org/fhir/StructureDefinition/contactpoint-country",
                      "valueString": "1"
                    },
                    {
                      "url": "http://hl7.org/fhir/StructureDefinition/contactpoint-local",
                      "valueString": "1112234"
                    },
                    {
                      "url": "http://hl7.org/fhir/StructureDefinition/contactpoint-extension",
                      "valueString": "3432"
                    },
                    {
                      "url": "http://hl7.org/fhir/ca-bc/provider/StructureDefinition/bc-communication-purpose-code-extension",
                      "valueCodeableConcept": {
                        "coding": [
                          {
                            "system": "https://plr.hlth.gov.bc.ca/plr/codes/bc-communication-purpose-code",
                            "code": "BC"
                          }
                        ]
                      }
                    }
                  ],
                  "system": "phone",
                  "period": {
                    "start": "2000-02-02"
                  }
                }
              ],
              "address": [
                {
                  "extension": [
                    {
                      "url": "http://hl7.org/fhir/ca-bc/provider/StructureDefinition/bc-communication-purpose-code-extension",
                      "valueCodeableConcept": {
                        "coding": [
                          {
                            "system": "https://plr.hlth.gov.bc.ca/plr/codes/bc-communication-purpose-code",
                            "code": "BC"
                          }
                        ]
                      }
                    },
                    {
                      "url": "http://hl7.org/fhir/ca-bc/provider/StructureDefinition/bc-address-validation-status-extension",
                      "valueCodeableConcept": {
                        "coding": [
                          {
                            "system": "https://plr.hlth.gov.bc.ca/plr/codes/bc-address-validation-status-code",
                            "code": "V"
                          }
                        ]
                      }
                    }
                  ],
                  "type": "postal",
                  "line": [
                    "19 ST",
                    "ADDRESS ADDRESSLINE2TXT",
                    "ADDRESS ADDRESSLINE3TXT"
                  ],
                  "city": "VICTORIA",
                  "state": "BC",
                  "postalCode": "V6P7B8",
                  "country": "CA",
                  "period": {
                    "start": "2000-01-01"
                  }
                }
              ]
            }
          },
          {
            "fullUrl": "urn:uuid:f41c4f5f-43eb-497c-8baa-e800fe3fe4fa",
            "resource": {
              "resourceType": "OrganizationAffiliation",
              "id": "Example-OrganizationAffiliation-2-LocRef-FromOrg",
              "meta": {
                "profile": [
                  "http://hl7.org/fhir/ca-bc/provider/StructureDefinition/bc-organization-affiliation"
                ]
              },
              "period": {
                "start": "2000-01-01"
              },
              "organization": {
                "reference": "urn:uuid:e24cfa57-5e07-4e5b-b229-0e65c74de7bf"
              },
              "code": [
                {
                  "coding": [
                    {
                      "system": "https://plr.hlth.gov.bc.ca/plr/codes/bc-location-relationship-type-code",
                      "code": "operatesfrom"
                    }
                  ]
                }
              ],
              "location": [
                {
                  "identifier": {
                    "system": "https://plr.hlth.gov.bc.ca/plr/identifier-system/IFC",
                    "value": "IFC.00147422.BC.PRS",
                    "period": {
                      "start": "2000-01-01"
                    }
                  }
                }
              ]
            }
          },
          {
            "fullUrl": "urn:uuid:efeb9931-b4b7-4caa-9682-cc0220043d1f",
            "resource": {
              "resourceType": "OrganizationAffiliation",
              "id": "Example-OrganizationAffiliation-1-OrgRef-FromOrg",
              "meta": {
                "profile": [
                  "http://hl7.org/fhir/ca-bc/provider/StructureDefinition/bc-organization-affiliation"
                ]
              },
              "period": {
                "start": "2000-01-01"
              },
              "organization": {
                "reference": "urn:uuid:e24cfa57-5e07-4e5b-b229-0e65c74de7bf"
              },
              "participatingOrganization": {
                "identifier": {
                  "system": "https://plr.hlth.gov.bc.ca/plr/identifier-system/ORGID",
                  "value": "123123123",
                  "period": {
                    "start": "2000-01-01"
                  }
                }
              },
              "code": [
                {
                  "coding": [
                    {
                      "system": "https://plr.hlth.gov.bc.ca/plr/codes/bc-relationship-type-code",
                      "code": "deptof"
                    }
                  ]
                }
              ]
            }
          },
          {
            "fullUrl": "ac8569d7-4ff1-405f-9b01-a4b71cf0770d",
            "resource": {
              "resourceType": "PractitionerRole",
              "id": "Example-PractitionerRole-2a-OrgRef-FromPractitioner",
              "meta": {
                "profile": [
                  "http://hl7.org/fhir/ca-bc/provider/StructureDefinition/bc-practitioner-role"
                ]
              },
              "period": {
                "start": "2000-01-01"
              },
              "practitioner": {
                "identifier": {
                  "extension": [
                    {
                      "extension": [
                        {
                          "url": "custodianId",
                          "valueIdentifier": {
                            "assigner": {
                              "display": "MOH"
                            }
                          }
                        }
                      ],
                      "url": "http://hl7.org/fhir/ca-bc/provider/StructureDefinition/bc-end-reason-extension"
                    }
                  ],
                  "system": "https://plr.hlth.gov.bc.ca/plr/identifier-system/IPC",
                  "value": "IPC.00147422.BC.PRS",
                  "period": {
                    "start": "2000-01-01"
                  }
                }
              },
              "organization": {
                "extension": [
                  {
                    "url": "http://hl7.org/fhir/ca-bc/provider/StructureDefinition/bc-relationship-type-extension",
                    "valueCodeableConcept": {
                      "coding": [
                        {
                          "system": "https://plr.hlth.gov.bc.ca/plr/codes/bc-relationship-type-code",
                          "code": "EMPLOYEE"
                        }
                      ]
                    }
                  }
                ],
                "reference": "urn:uuid:e24cfa57-5e07-4e5b-b229-0e65c74de7bf"
              }
            }
          }
        ]
      },
      "request": {
        "method": "PUT",
        "url": "http://plr.moh.bc.ca/fhir/Bundle"
      }
    },
    {
      "fullUrl": "urn:uuid:09494507-e0a8-4cd4-9a25-a42822a2f552",
      "resource": {
        "resourceType": "Bundle",
        "id": "Example-AddLocation-Bundle",
        "meta": {
          "profile": [
            "http://hl7.org/fhir/ca-bc/provider/StructureDefinition/bc-location-bundle"
          ]
        },
        "type": "collection",
        "entry": [
          {
            "fullUrl": "urn:uuid:18734433-5c7b-42c8-ade5-22bd2c82e4f2",
            "resource": {
              "resourceType": "Location",
              "id": "Example-Location",
              "meta": {
                "profile": [
                  "http://hl7.org/fhir/ca-bc/provider/StructureDefinition/bc-location"
                ]
              },
              "identifier": [
                {
                  "system": "https://plr.hlth.gov.bc.ca/plr/identifier-system/IFC",
                  "value": "IFC.00147422.BC.PRS",
                  "period": {
                    "start": "2000-01-01"
                  }
                }
              ],
              "name": "General Hospital",
              "_name": {
                "extension": [
                  {
                    "url": "http://hl7.org/fhir/ca-bc/provider/StructureDefinition/bc-period-extension",
                    "valuePeriod": {
                      "start": "2000-01-01"
                    }
                  }
                ]
              },
              "telecom": [
                {
                  "extension": [
                    {
                      "url": "http://hl7.org/fhir/ca-bc/provider/StructureDefinition/bc-communication-purpose-code-extension",
                      "valueCodeableConcept": {
                        "coding": [
                          {
                            "system": "https://plr.hlth.gov.bc.ca/plr/codes/bc-communication-purpose-code",
                            "code": "BC"
                          }
                        ]
                      }
                    }
                  ],
                  "system": "fax",
                  "value": "55555555551",
                  "period": {
                    "start": "1982-03-04T00:00:00-07:00"
                  }
                },
                {
                  "extension": [
                    {
                      "url": "http://hl7.org/fhir/ca-bc/provider/StructureDefinition/bc-communication-purpose-code-extension",
                      "valueCodeableConcept": {
                        "coding": [
                          {
                            "system": "https://plr.hlth.gov.bc.ca/plr/codes/bc-communication-purpose-code",
                            "code": "HC"
                          }
                        ]
                      }
                    }
                  ],
                  "system": "fax",
                  "value": "55555555555",
                  "period": {
                    "start": "1981-04-04T00:00:00-07:00"
                  }
                },
                {
                  "extension": [
                    {
                      "url": "http://hl7.org/fhir/ca-bc/provider/StructureDefinition/bc-communication-purpose-code-extension",
                      "valueCodeableConcept": {
                        "coding": [
                          {
                            "system": "https://plr.hlth.gov.bc.ca/plr/codes/bc-communication-purpose-code",
                            "code": "MC"
                          }
                        ]
                      }
                    }
                  ],
                  "system": "url",
                  "value": "ftp://someftp.com",
                  "period": {
                    "start": "1991-01-01T00:00:00-07:00"
                  }
                }
              ],
              "address": {
                "extension": [
                  {
                    "url": "http://hl7.org/fhir/ca-bc/provider/StructureDefinition/bc-communication-purpose-code-extension",
                    "valueCodeableConcept": {
                      "coding": [
                        {
                          "system": "https://plr.hlth.gov.bc.ca/plr/codes/bc-communication-purpose-code",
                          "code": "BC"
                        }
                      ]
                    }
                  },
                  {
                    "url": "http://hl7.org/fhir/ca-bc/provider/StructureDefinition/bc-address-validation-status-extension",
                    "valueCodeableConcept": {
                      "coding": [
                        {
                          "system": "https://plr.hlth.gov.bc.ca/plr/codes/bc-address-validation-status-code",
                          "code": "V"
                        }
                      ]
                    }
                  }
                ],
                "type": "postal",
                "line": [
                  "19 ST",
                  "ADDRESS ADDRESSLINE2TXT",
                  "ADDRESS ADDRESSLINE3TXT"
                ],
                "city": "VICTORIA",
                "state": "BC",
                "postalCode": "V6P7B8",
                "country": "CA",
                "period": {
                  "start": "2000-01-01"
                }
              }
            }
          },
          {
            "fullUrl": "urn:uuuid:4d73bc14-4332-4acc-a057-0b2ee66c3d4d",
            "resource": {
              "resourceType": "PractitionerRole",
              "id": "Example-PractitionerRole-5-PracRef-FromLoc",
              "meta": {
                "profile": [
                  "http://hl7.org/fhir/ca-bc/provider/StructureDefinition/bc-practitioner-role"
                ]
              },
              "period": {
                "start": "2000-01-01"
              },
              "practitioner": {
                "extension": [
                  {
                    "url": "http://hl7.org/fhir/ca-bc/provider/StructureDefinition/bc-relationship-type-extension",
                    "valueCodeableConcept": {
                      "coding": [
                        {
                          "system": "https://plr.hlth.gov.bc.ca/plr/codes/bc-location-relationship-type-code",
                          "code": "worklocationfor"
                        }
                      ]
                    }
                  }
                ],
                "identifier": {
                  "system": "https://plr.hlth.gov.bc.ca/plr/identifier-system/IPC",
                  "value": "IPC.00147433.BC.PRS",
                  "period": {
                    "start": "2000-01-01"
                  }
                }
              },
              "location": [
                {
                  "reference": "urn:uuid:18734433-5c7b-42c8-ade5-22bd2c82e4f2"
                }
              ]
            }
          }
        ]
      },
      "request": {
        "method": "PUT",
        "url": "http://plr.moh.bc.ca/fhir/Bundle"
      }
    }
  ]
}