{
  "resourceType": "Bundle",
  "id": "Example-DistributePractitioner-Bundle",
  "meta": {
    "profile": [
      "http://hl7.org/fhir/ca-bc/provider/StructureDefinition/bc-practitioner-bundle"
    ]
  },
  "type": "collection",
  "entry": [
    {
      "fullUrl": "urn:uuid:67b11c73-c2ee-474f-ab64-56b863a1cc87",
      "resource": {
        "resourceType": "Practitioner",
        "id": "Example-Practitioner",
        "meta": {
          "profile": [
            "http://hl7.org/fhir/ca-bc/provider/StructureDefinition/bc-practitioner"
          ]
        },
        "text": {
          "status": "extensions",
          "div": "<div xmlns=\"http://www.w3.org/1999/xhtml\"><p><b>Generated Narrative</b></p><div style=\"display: inline-block; background-color: #d9e0e7; padding: 6px; margin: 4px; border: 1px solid #8da1b4; border-radius: 5px; line-height: 60%\"><p style=\"margin-bottom: 0px\">Resource \"Example-Practitioner\" </p><p style=\"margin-bottom: 0px\">Profile: <a href=\"StructureDefinition-bc-practitioner.html\">BCPractitioner</a></p></div><p><b>BC Valid Period Extension</b>: 2012-12-07 --&gt; (ongoing)</p><p><b>BC Birth Place Extension</b>: Ottawa CA </p><blockquote><p><b>BC License Status Extension</b></p><p><b>value</b>: active <span style=\"background: LightGoldenRodYellow; margin: 4px; border: 1px solid khaki\"> (<a href=\"http://terminology.hl7.org/3.1.0/CodeSystem-v3-RoleStatus.html\">RoleStatus</a>#active)</span></p><p><b>value</b>: 2022-02-07 --&gt; 2023-02-07</p><p><b>value</b>: GS <span style=\"background: LightGoldenRodYellow; margin: 4px; border: 1px solid khaki\"> (bc-status-reason-code#GS)</span></p></blockquote><blockquote><p><b>BC Practitioner Disciplinary Actions Extension</b></p><p><b>value</b>: id: DA-1</p><p><b>value</b>: Description</p><p><b>value</b>: 2000-01-01</p><p><b>value</b>: 1998-01-02 --&gt; (ongoing)</p><p><b>value</b>: false</p></blockquote><blockquote><p><b>BC Notes Extension</b></p><p><b>value</b>: id: Note-2</p><p><b>value</b>: Note text</p><p><b>value</b>: 1998-01-02 --&gt; (ongoing)</p></blockquote><blockquote><p><b>BC Practitioner Conditions Extension</b></p><p><b>value</b>: id: Condition-1</p><p><b>value</b>: false</p><p><b>value</b>: Restriction text</p><p><b>value</b>: EXP <span style=\"background: LightGoldenRodYellow; margin: 4px; border: 1px solid khaki\"> (bc-condition-type-code#EXP)</span></p><p><b>value</b>: 1998-01-02 --&gt; (ongoing)</p></blockquote><p><b>identifier</b>: IPC: IPC.00147422.BC.PRS, CPN: CPN.00147422.BC.PRS, CPSID: 123454</p><p><b>name</b>: GivenName FamilyName (OFFICIAL)</p><p><b>telecom</b>: ph: -unknown-</p><p><b>address</b>: 19 ST ADDRESS ADDRESSLINE2TXT ADDRESS ADDRESSLINE3TXT VICTORIA BC V6P7B8 CA </p><p><b>gender</b>: male</p><p><b>birthDate</b>: 1934-01-02</p><h3>Qualifications</h3><table class=\"grid\"><tr><td>-</td><td><b>Extension</b></td><td><b>Code</b></td><td><b>Period</b></td><td><b>Issuer</b></td></tr><tr><td>*</td><td></td><td>BD <span style=\"background: LightGoldenRodYellow; margin: 4px; border: 1px solid khaki\"> (<a href=\"http://terminology.hl7.org/3.1.0/CodeSystem-v3-scpqual.html\">pan-Canadian Provider Qualification Types</a>#BD)</span></td><td>2000-01-01 --&gt; (ongoing)</td><td><a name=\"grantingInstitution\"> </a><blockquote><div style=\"display: inline-block; background-color: #d9e0e7; padding: 6px; margin: 4px; border: 1px solid #8da1b4; border-radius: 5px; line-height: 60%\"><p style=\"margin-bottom: 0px\">Resource \"grantingInstitution\" </p><p style=\"margin-bottom: 0px\">Profile: <a href=\"StructureDefinition-bc-organization.html\">BCOrganization</a></p></div><p><b>name</b>: University of Calgary</p><p><b>address</b>: CALGARY AB CA </p></blockquote></td></tr></table><p><b>communication</b>: EN <span style=\"background: LightGoldenRodYellow; margin: 4px; border: 1px solid khaki\"> (bc-language-code#EN)</span></p></div>"
        },
        "contained": [
          {
            "resourceType": "Organization",
            "id": "grantingInstitution",
            "meta": {
              "profile": [
                "http://hl7.org/fhir/ca-bc/provider/StructureDefinition/bc-organization"
              ]
            },
            "name": "University of Calgary",
            "address": [
              {
                "city": "CALGARY",
                "state": "AB",
                "country": "CA"
              }
            ]
          }
        ],
        "extension": [
          {
            "url": "http://hl7.org/fhir/ca-bc/provider/StructureDefinition/bc-period-extension",
            "valuePeriod": {
              "start": "2012-12-07"
            }
          },
          {
            "url": "http://hl7.org/fhir/ca-bc/provider/StructureDefinition/bc-birthplace-extension",
            "valueAddress": {
              "city": "Ottawa",
              "country": "CA"
            }
          },
          {
            "extension": [
              {
                "url": "statusCode",
                "valueCodeableConcept": {
                  "coding": [
                    {
                      "system": "http://terminology.hl7.org/CodeSystem/v3-RoleStatus",
                      "code": "active"
                    }
                  ]
                }
              },
              {
                "url": "period",
                "valuePeriod": {
                  "start": "2022-02-07",
                  "end": "2023-02-07"
                }
              },
              {
                "url": "statusReasonCode",
                "valueCodeableConcept": {
                  "coding": [
                    {
                      "system": "https://plr.hlth.gov.bc.ca/plr/codes/bc-status-reason-code",
                      "code": "GS"
                    }
                  ]
                }
              }
            ],
            "url": "http://hl7.org/fhir/ca-bc/provider/StructureDefinition/bc-license-status-extension"
          },
          {
            "extension": [
              {
                "url": "identifier",
                "valueIdentifier": {
                  "value": "DA-1"
                }
              },
              {
                "url": "description",
                "valueString": "Description"
              },
              {
                "url": "archiveDate",
                "valueDateTime": "2000-01-01"
              },
              {
                "url": "http://hl7.org/fhir/ca-bc/provider/StructureDefinition/bc-period-extension",
                "valuePeriod": {
                  "start": "1998-01-02"
                }
              },
              {
                "url": "displayFlag",
                "valueBoolean": false
              }
            ],
            "url": "http://hl7.org/fhir/ca-bc/provider/StructureDefinition/bc-practitioner-disciplinary-action-extension"
          },
          {
            "extension": [
              {
                "url": "identifier",
                "valueIdentifier": {
                  "value": "Note-2"
                }
              },
              {
                "url": "text",
                "valueString": "Note text"
              },
              {
                "url": "http://hl7.org/fhir/ca-bc/provider/StructureDefinition/bc-period-extension",
                "valuePeriod": {
                  "start": "1998-01-02"
                }
              }
            ],
            "url": "http://hl7.org/fhir/ca-bc/provider/StructureDefinition/bc-note-extension"
          },
          {
            "extension": [
              {
                "url": "identifier",
                "valueIdentifier": {
                  "value": "Condition-1"
                }
              },
              {
                "url": "restriction",
                "valueBoolean": false
              },
              {
                "url": "restrictionText",
                "valueString": "Restriction text"
              },
              {
                "url": "code",
                "valueCodeableConcept": {
                  "coding": [
                    {
                      "system": "https://plr.hlth.gov.bc.ca/plr/codes/bc-condition-type-code",
                      "code": "EXP"
                    }
                  ]
                }
              },
              {
                "url": "http://hl7.org/fhir/ca-bc/provider/StructureDefinition/bc-period-extension",
                "valuePeriod": {
                  "start": "1998-01-02"
                }
              }
            ],
            "url": "http://hl7.org/fhir/ca-bc/provider/StructureDefinition/bc-practitioner-condition-extension"
          }
        ],
        "identifier": [
          {
            "type": {
              "coding": [
                {
                  "system": "https://plr.hlth.gov.bc.ca/plr/codes/bc-identifer-type-code",
                  "code": "IPC"
                }
              ]
            },
            "value": "IPC.00147422.BC.PRS",
            "period": {
              "start": "2000-01-01"
            }
          },
          {
            "type": {
              "coding": [
                {
                  "system": "https://plr.hlth.gov.bc.ca/plr/codes/bc-identifer-type-code",
                  "code": "CPN"
                }
              ]
            },
            "value": "CPN.00147422.BC.PRS",
            "period": {
              "start": "2000-01-01"
            }
          },
          {
            "type": {
              "coding": [
                {
                  "system": "https://plr.hlth.gov.bc.ca/plr/codes/bc-identifer-type-code",
                  "code": "CPSID"
                }
              ]
            },
            "value": "123454",
            "period": {
              "start": "2000-01-01"
            }
          }
        ],
        "name": [
          {
            "use": "official",
            "family": "FamilyName",
            "given": [
              "GivenName"
            ],
            "period": {
              "start": "2012-12-07"
            }
          }
        ],
        "telecom": [
          {
            "extension": [
              {
                "url": "http://hl7.org/fhir/StructureDefinition/contactpoint-area",
                "valueString": "250"
              },
              {
                "url": "http://hl7.org/fhir/StructureDefinition/contactpoint-local",
                "valueString": "111-2234"
              },
              {
                "url": "http://hl7.org/fhir/StructureDefinition/contactpoint-extension",
                "valueString": "3432"
              },
              {
                "url": "http://hl7.org/fhir/ca-bc/provider/StructureDefinition/bc-communication-purpose-code-extension",
                "valueCodeableConcept": {
                  "coding": [
                    {
                      "system": "https://plr.hlth.gov.bc.ca/plr/codes/bc-communication-purpose-code",
                      "code": "BC"
                    }
                  ]
                }
              }
            ],
            "system": "phone",
            "period": {
              "start": "2000-02-02"
            }
          }
        ],
        "address": [
          {
            "extension": [
              {
                "url": "http://hl7.org/fhir/ca-bc/provider/StructureDefinition/bc-communication-purpose-code-extension",
                "valueCodeableConcept": {
                  "coding": [
                    {
                      "system": "https://plr.hlth.gov.bc.ca/plr/codes/bc-communication-purpose-code",
                      "code": "BC"
                    }
                  ]
                }
              },
              {
                "url": "http://hl7.org/fhir/ca-bc/provider/StructureDefinition/bc-address-validation-status-extension",
                "valueCodeableConcept": {
                  "coding": [
                    {
                      "system": "https://plr.hlth.gov.bc.ca/plr/codes/bc-address-validation-status-code",
                      "code": "V"
                    }
                  ]
                }
              }
            ],
            "type": "postal",
            "line": [
              "19 ST",
              "ADDRESS ADDRESSLINE2TXT",
              "ADDRESS ADDRESSLINE3TXT"
            ],
            "city": "VICTORIA",
            "state": "BC",
            "postalCode": "V6P7B8",
            "country": "CA",
            "period": {
              "start": "2000-01-01"
            }
          }
        ],
        "gender": "male",
        "birthDate": "1934-01-02",
        "qualification": [
          {
            "extension": [
              {
                "extension": [
                  {
                    "url": "designation",
                    "valueString": "Designation"
                  },
                  {
                    "url": "equivalencyFlag",
                    "valueBoolean": false
                  },
                  {
                    "url": "registrationNumber",
                    "valueString": "Registration No."
                  },
                  {
                    "url": "issuedDate",
                    "valueDateTime": "2000-02-03"
                  }
                ],
                "url": "http://hl7.org/fhir/ca-bc/provider/StructureDefinition/bc-practitioner-qualification-extension"
              }
            ],
            "code": {
              "coding": [
                {
                  "system": "https://fhir.infoway-inforoute.ca/CodeSystem/scpqual",
                  "code": "BD"
                }
              ]
            },
            "period": {
              "start": "2000-01-01"
            },
            "issuer": {
              "reference": "#grantingInstitution"
            }
          }
        ],
        "communication": [
          {
            "extension": [
              {
                "url": "http://hl7.org/fhir/ca-bc/provider/StructureDefinition/bc-period-extension",
                "valuePeriod": {
                  "start": "2000-01-01"
                }
              },
              {
                "url": "http://hl7.org/fhir/ca-bc/provider/StructureDefinition/bc-specialty-source-extension",
                "valueString": "Language Source"
              }
            ],
            "coding": [
              {
                "system": "https://plr.hlth.gov.bc.ca/plr/codes/bc-language-code",
                "code": "EN"
              }
            ]
          }
        ]
      }
    },
    {
      "fullUrl": "urn:uuid:e46a70b4-d0b9-4770-8ff6-989f4f847dc6",
      "resource": {
        "resourceType": "PractitionerRole",
        "id": "Example-PractitionerRole-1-Role-FromPractitioner",
        "meta": {
          "profile": [
            "http://hl7.org/fhir/ca-bc/provider/StructureDefinition/bc-practitioner-role"
          ]
        },
        "text": {
          "status": "generated",
          "div": "<div xmlns=\"http://www.w3.org/1999/xhtml\"><p><b>Generated Narrative</b></p><div style=\"display: inline-block; background-color: #d9e0e7; padding: 6px; margin: 4px; border: 1px solid #8da1b4; border-radius: 5px; line-height: 60%\"><p style=\"margin-bottom: 0px\">Resource \"Example-PractitionerRole-1-Role-FromPractitioner\" </p><p style=\"margin-bottom: 0px\">Profile: <a href=\"StructureDefinition-bc-practitioner-role.html\">BCPractitionerRole</a></p></div><p><b>practitioner</b>: <a href=\"#Practitioner_Example-Practitioner\">See above (urn:uuid:67b11c73-c2ee-474f-ab64-56b863a1cc87)</a></p><p><b>organization</b>: <span>: BC</span></p><p><b>code</b>: MD <span style=\"background: LightGoldenRodYellow; margin: 4px; border: 1px solid khaki\"> (<a href=\"http://terminology.hl7.org/3.1.0/CodeSystem-v3-scptype.html\">pan-Canadian Provider Types</a>#MD)</span></p><p><b>specialty</b>: AMD53 <span style=\"background: LightGoldenRodYellow; margin: 4px; border: 1px solid khaki\"> (<a href=\"http://terminology.hl7.org/3.1.0/CodeSystem-v3-scpqual.html\">pan-Canadian Provider Qualification Types</a>#AMD53)</span></p></div>"
        },
        "practitioner": {
          "reference": "urn:uuid:67b11c73-c2ee-474f-ab64-56b863a1cc87"
        },
        "organization": {
          "display": "BC"
        },
        "code": [
          {
            "coding": [
              {
                "system": "https://fhir.infoway-inforoute.ca/CodeSystem/scptype",
                "code": "MD"
              }
            ]
          }
        ],
        "specialty": [
          {
            "extension": [
              {
                "url": "http://hl7.org/fhir/ca-bc/provider/StructureDefinition/bc-period-extension",
                "valuePeriod": {
                  "start": "2000-01-01",
                  "end": "2020-01-01"
                }
              },
              {
                "url": "http://hl7.org/fhir/ca-bc/provider/StructureDefinition/bc-specialty-source-extension",
                "valueString": "Expertise source"
              }
            ],
            "coding": [
              {
                "system": "https://fhir.infoway-inforoute.ca/CodeSystem/scpqual",
                "code": "AMD53"
              }
            ]
          }
        ]
      }
    },
    {
      "fullUrl": "urn:uuid:e06c8673-ddf5-4190-ba1e-dd43923a66c7",
      "resource": {
        "resourceType": "PractitionerRole",
        "id": "Example-PractitionerRole-2-OrgReference-FromPractitioner",
        "meta": {
          "profile": [
            "http://hl7.org/fhir/ca-bc/provider/StructureDefinition/bc-practitioner-role"
          ]
        },
        "text": {
          "status": "generated",
          "div": "<div xmlns=\"http://www.w3.org/1999/xhtml\"><p><b>Generated Narrative</b></p><div style=\"display: inline-block; background-color: #d9e0e7; padding: 6px; margin: 4px; border: 1px solid #8da1b4; border-radius: 5px; line-height: 60%\"><p style=\"margin-bottom: 0px\">Resource \"Example-PractitionerRole-2-OrgReference-FromPractitioner\" </p><p style=\"margin-bottom: 0px\">Profile: <a href=\"StructureDefinition-bc-practitioner-role.html\">BCPractitionerRole</a></p></div><p><b>period</b>: 2000-01-01 --&gt; (ongoing)</p><p><b>practitioner</b>: <a href=\"#Practitioner_Example-Practitioner\">See above (urn:uuid:67b11c73-c2ee-474f-ab64-56b863a1cc87)</a></p><p><b>organization</b>: <span></span></p></div>"
        },
        "period": {
          "start": "2000-01-01"
        },
        "practitioner": {
          "extension": [
            {
              "url": "http://hl7.org/fhir/ca-bc/provider/StructureDefinition/bc-relationship-type-extension",
              "valueCodeableConcept": {
                "coding": [
                  {
                    "system": "https://plr.hlth.gov.bc.ca/plr/codes/bc-relationship-type-code",
                    "code": "EMPLOYEE"
                  }
                ]
              }
            }
          ],
          "reference": "urn:uuid:67b11c73-c2ee-474f-ab64-56b863a1cc87"
        },
        "organization": {
          "identifier": {
            "type": {
              "coding": [
                {
                  "system": "https://plr.hlth.gov.bc.ca/plr/codes/bc-identifer-type-code",
                  "code": "ORGID"
                }
              ]
            },
            "value": "123123123",
            "period": {
              "start": "2000-01-01"
            }
          }
        }
      }
    },
    {
      "fullUrl": "urn:uuid:529cd77a-8f57-4d2d-bf3d-38dc3c2c4ec9",
      "resource": {
        "resourceType": "PractitionerRole",
        "id": "Example-PractitionerRole-3-LocReference-FromPractitioner",
        "meta": {
          "profile": [
            "http://hl7.org/fhir/ca-bc/provider/StructureDefinition/bc-practitioner-role"
          ]
        },
        "text": {
          "status": "generated",
          "div": "<div xmlns=\"http://www.w3.org/1999/xhtml\"><p><b>Generated Narrative</b></p><div style=\"display: inline-block; background-color: #d9e0e7; padding: 6px; margin: 4px; border: 1px solid #8da1b4; border-radius: 5px; line-height: 60%\"><p style=\"margin-bottom: 0px\">Resource \"Example-PractitionerRole-3-LocReference-FromPractitioner\" </p><p style=\"margin-bottom: 0px\">Profile: <a href=\"StructureDefinition-bc-practitioner-role.html\">BCPractitionerRole</a></p></div><p><b>period</b>: 2000-01-01 --&gt; (ongoing)</p><p><b>practitioner</b>: <a href=\"#Practitioner_Example-Practitioner\">See above (urn:uuid:67b11c73-c2ee-474f-ab64-56b863a1cc87)</a></p><p><b>location</b>: <span></span></p></div>"
        },
        "period": {
          "start": "2000-01-01"
        },
        "practitioner": {
          "extension": [
            {
              "url": "http://hl7.org/fhir/ca-bc/provider/StructureDefinition/bc-location-relationship-type-extension",
              "valueCodeableConcept": {
                "coding": [
                  {
                    "system": "https://plr.hlth.gov.bc.ca/plr/codes/bc-location-relationship-type-code",
                    "code": "WORKSAT"
                  }
                ]
              }
            }
          ],
          "reference": "urn:uuid:67b11c73-c2ee-474f-ab64-56b863a1cc87"
        },
        "location": [
          {
            "identifier": {
              "type": {
                "coding": [
                  {
                    "system": "https://plr.hlth.gov.bc.ca/plr/codes/bc-identifer-type-code",
                    "code": "IFC"
                  }
                ]
              },
              "value": "IFC.00147422.BC.PRS",
              "period": {
                "start": "2000-01-01"
              }
            }
          }
        ]
      }
    }
  ]
}