<?xml version="1.0" encoding="UTF-8"?>

<Bundle xmlns="http://hl7.org/fhir">
  <id value="Example-AddPractitioner-Bundle"/>
  <meta>
    <profile value="http://hl7.org/fhir/ca-bc/provider/StructureDefinition/bc-practitioner-bundle"/>
  </meta>
  <type value="transaction"/>
  <entry>
    <fullUrl value="http://plr.moh.bc.ca/fhir/Practitioner/12345"/>
    <resource>
      <Practitioner>
        <id value="Example-AddPractitioner-Practitioner"/>
        <meta>
          <profile value="http://hl7.org/fhir/ca-bc/provider/StructureDefinition/bc-practitioner"/>
        </meta>
        <text>
          <status value="extensions"/><div xmlns="http://www.w3.org/1999/xhtml"><p><b>Generated Narrative</b></p><div style="display: inline-block; background-color: #d9e0e7; padding: 6px; margin: 4px; border: 1px solid #8da1b4; border-radius: 5px; line-height: 60%"><p style="margin-bottom: 0px">Resource "Example-AddPractitioner-Practitioner" </p><p style="margin-bottom: 0px">Profile: <a href="StructureDefinition-bc-practitioner.html">BCPractitioner</a></p></div><p><b>BC Valid Period Extension</b>: 2000-01-01 --&gt; 2020-01-01</p><blockquote><p><b>BC License Status Extension</b></p><p><b>value</b>: active <span style="background: LightGoldenRodYellow; margin: 4px; border: 1px solid khaki"> (<a href="http://terminology.hl7.org/3.1.0/CodeSystem-v3-RoleStatus.html">RoleStatus</a>#active)</span></p><p><b>value</b>: PRAC <span style="background: LightGoldenRodYellow; margin: 4px; border: 1px solid khaki"> (bc-status-reason-code#PRAC)</span></p><p><b>value</b>: LIC <span style="background: LightGoldenRodYellow; margin: 4px; border: 1px solid khaki"> (bc-status-class-code#LIC)</span></p><p><b>value</b>: 2000-01-01 --&gt; 2020-01-01</p></blockquote><blockquote><p><b>BC End Reason Extension</b></p><p><b>value</b>: id: ?ngen-9?</p><p><b>value</b>: PRAC <span style="background: LightGoldenRodYellow; margin: 4px; border: 1px solid khaki"> (bc-status-reason-code#PRAC)</span></p></blockquote><p><b>BC Practitioner Date of Death Extension</b>: 2000-02-01</p><p><b>BC Birth Place Extension</b>: AL US </p><blockquote><p><b>BC Practitioner Disciplinary Actions Extension</b></p><p><b>value</b>: id: DISCIPLINARY_ACTION_TEST1</p><p><b>value</b>: DISCIPLINARYACTION_DESCRIPTIONTXT_1</p><p><b>value</b>: 1950-11-20 12:00:00-0700 --&gt; 2020-01-01</p><p><b>value</b>: 2020-01-01</p><p><b>value</b>: true</p></blockquote><blockquote><p><b>BC Practitioner Confidentiality Extension</b></p><p><b>value</b>: normal <span style="background: LightGoldenRodYellow; margin: 4px; border: 1px solid khaki"> (<a href="http://terminology.hl7.org/3.1.0/CodeSystem-v3-Confidentiality.html">Confidentiality</a>#N)</span></p><p><b>value</b>: 2000-01-01 --&gt; 2020-01-01</p></blockquote><blockquote><p><b>BC Notes Extension</b></p><p><b>value</b>: id: noteID1</p><p><b>value</b>: Note text sample</p><p><b>value</b>: 2000-01-01 --&gt; 2020-01-01</p></blockquote><blockquote><p><b>BC Practitioner Conditions Extension</b></p><p><b>value</b>: id: 23</p><p><b>value</b>: 2000-01-01 --&gt; 2020-01-01</p><p><b>value</b>: true</p><p><b>value</b>: CONDITION_RESTRICTION_EXPLANATION TEXT</p><p><b>value</b>: LOC <span style="background: LightGoldenRodYellow; margin: 4px; border: 1px solid khaki"> (bc-condition-type-code#LOC)</span></p></blockquote><blockquote><p><b>BC Practitioner to Practitioner Relationship Extension</b></p><p><b>value</b>: 2000-01-01 --&gt; 2020-01-01</p><p><b>value</b>: <a href="Practitioner-Example-AddPractitioner-RelatedPractitioner.html">Practitioner/Example-AddPractitioner-RelatedPractitioner</a> ""</p><p><b>value</b>: LOC <span style="background: LightGoldenRodYellow; margin: 4px; border: 1px solid khaki"> (bc-relationship-type-code#LOC)</span></p></blockquote><p><b>identifier</b>: id: MD20180719V01</p><p><b>active</b>: true</p><p><b>name</b>: SONYA NAME PRSNSECONDGIVENNAMETXT NAME PRSNTHIRDGIVENNAMETXT KELASEY (OFFICIAL)</p><p><b>telecom</b>: ph: 2507654333, <a href="mailto:hey@day.com">hey@day.com</a></p><p><b>address</b>: 91 RD ADDRESS ADDRESSLINE2TXT ADDRESS ADDRESSLINE3TXT VICTORIA BC V8V8V8 </p><p><b>gender</b>: female</p><p><b>birthDate</b>: 1951-11-12</p><h3>Qualifications</h3><table class="grid"><tr><td>-</td><td><b>Extension</b></td><td><b>Code</b></td><td><b>Period</b></td><td><b>Issuer</b></td></tr><tr><td>*</td><td></td><td>CREDENTIAL_CREDENTIALDESIGNATIONTXT <span style="background: LightGoldenRodYellow; margin: 4px; border: 1px solid khaki"> (<a href="http://terminology.hl7.org/3.1.0/CodeSystem-v3-scpqual.html">pan-Canadian Provider Qualification Types</a>#BD)</span></td><td>2000-01-01 --&gt; 2020-01-01</td><td><a name="qualificationOrganization"> </a><blockquote><div style="display: inline-block; background-color: #d9e0e7; padding: 6px; margin: 4px; border: 1px solid #8da1b4; border-radius: 5px; line-height: 60%"><p style="margin-bottom: 0px">Resource "qualificationOrganization" </p><p style="margin-bottom: 0px">Profile: <a href="StructureDefinition-bc-organization.html">BCOrganization</a></p></div><p><b>name</b>: CREDENTIAL_CREDENTIALGRANTINGINSTTXT</p><p><b>address</b>: CALGARY AB CA </p></blockquote></td></tr></table><p><b>communication</b>: EN <span style="background: LightGoldenRodYellow; margin: 4px; border: 1px solid khaki"> (bc-language-code#EN)</span></p></div>
        </text>
        <contained>
          <Organization>
            <id value="qualificationOrganization"/>
            <meta>
              <profile value="http://hl7.org/fhir/ca-bc/provider/StructureDefinition/bc-organization"/>
            </meta>
            <name value="CREDENTIAL_CREDENTIALGRANTINGINSTTXT"/>
            <address>
              <city value="CALGARY"/>
              <state value="AB"/>
              <country value="CA"/>
            </address>
          </Organization>
        </contained>
        <extension url="http://hl7.org/fhir/ca-bc/provider/StructureDefinition/bc-period-extension">
          <valuePeriod>
            <start value="2000-01-01"/>
            <end value="2020-01-01"/>
          </valuePeriod>
        </extension>
        <extension url="http://hl7.org/fhir/ca-bc/provider/StructureDefinition/bc-license-status-extension">
          <extension url="statusCode">
            <valueCodeableConcept>
              <coding>
                <system value="http://terminology.hl7.org/CodeSystem/v3-RoleStatus"/>
                <code value="active"/>
              </coding>
            </valueCodeableConcept>
          </extension>
          <extension url="statusReasonCode">
            <valueCodeableConcept>
              <coding>
                <system value="http://hl7.org/fhir/bc-plr/bc-status-reason-code"/>
                <code value="PRAC"/>
              </coding>
            </valueCodeableConcept>
          </extension>
          <extension url="statusClassCode">
            <valueCodeableConcept>
              <coding>
                <system value="http://hl7.org/fhir/bc-plr/bc-status-class-code"/>
                <code value="LIC"/>
              </coding>
            </valueCodeableConcept>
          </extension>
          <extension url="http://hl7.org/fhir/ca-bc/provider/StructureDefinition/bc-end-reason-extension">
            <extension url="custodianId">
              <valueIdentifier>
                <assigner>
                  <display value="RNA"/>
                </assigner>
              </valueIdentifier>
            </extension>
          </extension>
          <extension url="http://hl7.org/fhir/ca-bc/provider/StructureDefinition/bc-period-extension">
            <valuePeriod>
              <start value="2000-01-01"/>
              <end value="2020-01-01"/>
            </valuePeriod>
          </extension>
        </extension>
        <extension url="http://hl7.org/fhir/ca-bc/provider/StructureDefinition/bc-end-reason-extension">
          <extension url="custodianId">
            <valueIdentifier>
              <assigner>
                <display value="RNA"/>
              </assigner>
            </valueIdentifier>
          </extension>
          <extension url="endReasonCode">
            <valueCodeableConcept>
              <coding>
                <system value="http://hl7.org/fhir/bc-plr/bc-status-reason-code"/>
                <code value="PRAC"/>
              </coding>
            </valueCodeableConcept>
          </extension>
        </extension>
        <extension url="http://hl7.org/fhir/ca-bc/provider/StructureDefinition/bc-practitioner-deathdate-extension">
          <valueDateTime value="2000-02-01"/>
        </extension>
        <extension url="http://hl7.org/fhir/ca-bc/provider/StructureDefinition/bc-birthplace-extension">
          <valueAddress>
            <state value="AL"/>
            <country value="US"/>
          </valueAddress>
        </extension>
        <extension url="http://hl7.org/fhir/ca-bc/provider/StructureDefinition/bc-practitioner-disciplinary-action-extension">
          <extension url="identifier">
            <valueIdentifier>
              <system value="http://hl7.org/fhir/bc-plr/bc-disciplinary-action-id"/>
              <value value="DISCIPLINARY_ACTION_TEST1"/>
            </valueIdentifier>
          </extension>
          <extension url="description">
            <valueString value="DISCIPLINARYACTION_DESCRIPTIONTXT_1"/>
          </extension>
          <extension url="http://hl7.org/fhir/ca-bc/provider/StructureDefinition/bc-period-extension">
            <valuePeriod>
              <start value="1950-11-20T00:00:00-07:00"/>
              <end value="2020-01-01"/>
            </valuePeriod>
          </extension>
          <extension url="archiveDate">
            <valueDateTime value="2020-01-01"/>
          </extension>
          <extension url="displayFlag">
            <valueBoolean value="true"/>
          </extension>
        </extension>
        <extension url="http://hl7.org/fhir/ca-bc/provider/StructureDefinition/bc-practitioner-confidentiality-extension">
          <extension url="code">
            <valueCodeableConcept>
              <coding>
                <system value="http://terminology.hl7.org/CodeSystem/v3-Confidentiality"/>
                <code value="N"/>
              </coding>
            </valueCodeableConcept>
          </extension>
          <extension url="http://hl7.org/fhir/ca-bc/provider/StructureDefinition/bc-period-extension">
            <valuePeriod>
              <start value="2000-01-01"/>
              <end value="2020-01-01"/>
            </valuePeriod>
          </extension>
        </extension>
        <extension url="http://hl7.org/fhir/ca-bc/provider/StructureDefinition/bc-note-extension">
          <extension url="identifier">
            <valueIdentifier>
              <system value="http://hl7.org/fhir/bc-plr/bc-note-id"/>
              <value value="noteID1"/>
            </valueIdentifier>
          </extension>
          <extension url="text">
            <valueString value="Note text sample"/>
          </extension>
          <extension url="http://hl7.org/fhir/ca-bc/provider/StructureDefinition/bc-period-extension">
            <valuePeriod>
              <start value="2000-01-01"/>
              <end value="2020-01-01"/>
            </valuePeriod>
          </extension>
        </extension>
        <extension url="http://hl7.org/fhir/ca-bc/provider/StructureDefinition/bc-practitioner-condition-extension">
          <extension url="identifier">
            <valueIdentifier>
              <system value="http://hl7.org/fhir/bc-plr/bc-condition-type-code"/>
              <value value="23"/>
            </valueIdentifier>
          </extension>
          <extension url="http://hl7.org/fhir/ca-bc/provider/StructureDefinition/bc-period-extension">
            <valuePeriod>
              <start value="2000-01-01"/>
              <end value="2020-01-01"/>
            </valuePeriod>
          </extension>
          <extension url="restriction">
            <valueBoolean value="true"/>
          </extension>
          <extension url="restrictionText">
            <valueString value="CONDITION_RESTRICTION_EXPLANATION TEXT"/>
          </extension>
          <extension url="code">
            <valueCodeableConcept>
              <coding>
                <system value="http://hl7.org/fhir/bc-plr/bc-condition-type-code"/>
                <code value="LOC"/>
              </coding>
            </valueCodeableConcept>
          </extension>
        </extension>
        <extension url="http://hl7.org/fhir/ca-bc/provider/StructureDefinition/bc-practitioner-relationship-extension">
          <extension url="http://hl7.org/fhir/ca-bc/provider/StructureDefinition/bc-period-extension">
            <valuePeriod>
              <start value="2000-01-01"/>
              <end value="2020-01-01"/>
            </valuePeriod>
          </extension>
          <extension url="practitioner">
            <valueReference>
              <reference value="Practitioner/Example-AddPractitioner-RelatedPractitioner"/>
            </valueReference>
          </extension>
          <extension url="http://hl7.org/fhir/ca-bc/provider/StructureDefinition/bc-relationship-type-extension">
            <valueCodeableConcept>
              <coding>
                <system value="http://hl7.org/fhir/bc-plr/bc-relationship-type-code"/>
                <code value="LOC"/>
              </coding>
            </valueCodeableConcept>
          </extension>
        </extension>
        <identifier>
          <system value="urn:oid:2.16.840.1.113883.3.40.2.4"/>
          <value value="MD20180719V01"/>
          <period>
            <start value="2000-01-01"/>
            <end value="2020-01-01"/>
          </period>
        </identifier>
        <active value="true"/>
        <name>
          <use value="official"/>
          <family value="KELASEY"/>
          <given value="SONYA"/>
          <given value="NAME PRSNSECONDGIVENNAMETXT"/>
          <given value="NAME PRSNTHIRDGIVENNAMETXT"/>
          <prefix value="PRSNPREFIX"/>
          <suffix value="PRSNSUFFIX"/>
          <period>
            <start value="2000-01-01"/>
            <end value="2020-01-01"/>
          </period>
        </name>
        <telecom>
          <extension url="http://hl7.org/fhir/ca-bc/provider/StructureDefinition/bc-communication-purpose-code-extension">
            <valueCodeableConcept>
              <coding>
                <system value="http://hl7.org/fhir/bc-plr/bc-communication-purpose-code"/>
                <code value="HC"/>
              </coding>
            </valueCodeableConcept>
          </extension>
          <system value="phone"/>
          <value value="2507654333"/>
          <period>
            <start value="2000-01-01"/>
            <end value="2020-01-01"/>
          </period>
        </telecom>
        <telecom>
          <extension url="http://hl7.org/fhir/ca-bc/provider/StructureDefinition/bc-communication-purpose-code-extension">
            <valueCodeableConcept>
              <coding>
                <system value="http://hl7.org/fhir/bc-plr/bc-communication-purpose-code"/>
                <code value="BC"/>
              </coding>
            </valueCodeableConcept>
          </extension>
          <system value="email"/>
          <value value="hey@day.com"/>
          <period>
            <start value="2000-01-01"/>
            <end value="2020-01-01"/>
          </period>
        </telecom>
        <address>
          <extension url="http://hl7.org/fhir/ca-bc/provider/StructureDefinition/bc-communication-purpose-code-extension">
            <valueCodeableConcept>
              <coding>
                <system value="http://hl7.org/fhir/bc-plr/bc-communication-purpose-code"/>
                <code value="BC"/>
              </coding>
            </valueCodeableConcept>
          </extension>
          <type value="postal"/>
          <line value="91 RD"/>
          <line value="ADDRESS ADDRESSLINE2TXT"/>
          <line value="ADDRESS ADDRESSLINE3TXT"/>
          <city value="VICTORIA"/>
          <state value="BC"/>
          <postalCode value="V8V8V8"/>
          <period>
            <start value="2000-01-01"/>
            <end value="2020-01-01"/>
          </period>
        </address>
        <gender value="female"/>
        <birthDate value="1951-11-12">
          <extension url="http://hl7.org/fhir/ca-bc/provider/StructureDefinition/bc-birthtime-extension">
            <valueDateTime value="1951-11-12T00:00:01-06:00"/>
          </extension>
        </birthDate>
        <qualification>
          <extension url="http://hl7.org/fhir/ca-bc/provider/StructureDefinition/bc-practitioner-qualification-extension">
            <extension url="designation">
              <valueString value="designation"/>
            </extension>
            <extension url="equivalencyFlag">
              <valueBoolean value="true"/>
            </extension>
            <extension url="registrationNumber">
              <valueString value="registration number"/>
            </extension>
            <extension url="issuedDate">
              <valueDateTime value="2000-01-01"/>
            </extension>
          </extension>
          <code>
            <coding>
              <system value="https://fhir.infoway-inforoute.ca/CodeSystem/scpqual"/>
              <code value="BD"/>
            </coding>
            <text value="CREDENTIAL_CREDENTIALDESIGNATIONTXT"/>
          </code>
          <period>
            <start value="2000-01-01"/>
            <end value="2020-01-01"/>
          </period>
          <issuer>
            <reference value="#qualificationOrganization"/>
          </issuer>
        </qualification>
        <communication>
          <extension url="http://hl7.org/fhir/ca-bc/provider/StructureDefinition/bc-period-extension">
            <valuePeriod>
              <start value="2000-01-01"/>
            </valuePeriod>
          </extension>
          <extension url="http://hl7.org/fhir/ca-bc/provider/StructureDefinition/bc-specialty-source-extension">
            <valueString value="Language Source"/>
          </extension>
          <coding>
            <system value="http://hl7.org/fhir/bc-plr/bc-language-code"/>
            <code value="EN"/>
          </coding>
        </communication>
      </Practitioner>
    </resource>
    <request>
      <method value="POST"/>
      <url value="http://plr.moh.bc.ca/fhir/Practitioner"/>
    </request>
  </entry>
  <entry>
    <fullUrl value="http://plr.moh.bc.ca/fhir/PractitionerRole/12345"/>
    <resource>
      <PractitionerRole>
        <id value="Example-AddPractitioner-PractitionerRole"/>
        <meta>
          <profile value="http://hl7.org/fhir/ca-bc/provider/StructureDefinition/bc-practitioner-role"/>
        </meta>
        <text>
          <status value="generated"/><div xmlns="http://www.w3.org/1999/xhtml"><p><b>Generated Narrative</b></p><div style="display: inline-block; background-color: #d9e0e7; padding: 6px; margin: 4px; border: 1px solid #8da1b4; border-radius: 5px; line-height: 60%"><p style="margin-bottom: 0px">Resource "Example-AddPractitioner-PractitionerRole" </p><p style="margin-bottom: 0px">Profile: <a href="StructureDefinition-bc-practitioner-role.html">BCPractitionerRole</a></p></div><p><b>practitioner</b>: <a href="#Practitioner_Example-AddPractitioner-Practitioner">See above (Practitioner/Example-AddPractitioner-Practitioner)</a></p><p><b>organization</b>: <span>: BC</span></p><p><b>code</b>: MD <span style="background: LightGoldenRodYellow; margin: 4px; border: 1px solid khaki"> (<a href="http://terminology.hl7.org/3.1.0/CodeSystem-v3-scptype.html">pan-Canadian Provider Types</a>#MD)</span></p><p><b>specialty</b>: Family practice (qualifier value) <span style="background: LightGoldenRodYellow; margin: 4px; border: 1px solid khaki"> (<a href="https://browser.ihtsdotools.org/">SNOMED CT</a>#419772000</span></p><p><b style="color: maroon">Exception generating Narrative: null</b></p></div>
        </text>
        <practitioner>
          <reference value="Practitioner/Example-AddPractitioner-Practitioner"/>
        </practitioner>
        <organization>
          <display value="BC"/>
        </organization>
        <code>
          <coding>
            <system value="https://fhir.infoway-inforoute.ca/CodeSystem/scptype"/>
            <code value="MD"/>
          </coding>
        </code>
        <specialty>
          <extension url="http://hl7.org/fhir/ca-bc/provider/StructureDefinition/bc-period-extension">
            <valuePeriod>
              <start value="2000-01-01"/>
              <end value="2020-01-01"/>
            </valuePeriod>
          </extension>
          <extension url="http://hl7.org/fhir/ca-bc/provider/StructureDefinition/bc-end-reason-extension">
            <extension url="endReasonCode">
              <valueCodeableConcept>
                <coding>
                  <system value="http://hl7.org/fhir/bc-plr/bc-end-reason-code"/>
                  <code value="CORR"/>
                </coding>
              </valueCodeableConcept>
            </extension>
            <extension url="custodianId">
              <valueIdentifier>
                <assigner>
                  <display value="RNA"/>
                </assigner>
              </valueIdentifier>
            </extension>
          </extension>
          <extension url="http://hl7.org/fhir/ca-bc/provider/StructureDefinition/bc-specialty-source-extension">
            <valueString value="Source"/>
          </extension>
          <coding>
            <system value="http://snomed.info/sct"/>
            <code value="419772000"/>
          </coding>
        </specialty>
        <location>
          <extension url="http://hl7.org/fhir/ca-bc/provider/StructureDefinition/bc-period-extension">
            <valuePeriod>
              <start value="2000-01-01"/>
              <end value="2020-01-01"/>
            </valuePeriod>
          </extension>
          <reference value="Location/Example-AddPractitioner-WorkLocation"/>
        </location>
      </PractitionerRole>
    </resource>
    <request>
      <method value="POST"/>
      <url value="http://plr.moh.bc.ca/fhir/PractitionerRole"/>
    </request>
  </entry>
</Bundle>