<?xml version="1.0" encoding="UTF-8"?>

<Bundle xmlns="http://hl7.org/fhir">
  <id value="Example-Batch-Bundle"/>
  <meta>
    <profile value="http://hl7.org/fhir/ca-bc/provider/StructureDefinition/bc-batch-bundle"/>
  </meta>
  <type value="batch"/>
  <entry>
    <fullUrl value="http://plr.moh.bc.ca/fhir/Bundle/12345"/>
    <resource>
      <Bundle>
        <id value="Example-AddPractitioner-Bundle"/>
        <meta>
          <profile value="http://hl7.org/fhir/ca-bc/provider/StructureDefinition/bc-practitioner-bundle"/>
        </meta>
        <type value="transaction"/>
        <entry>
          <fullUrl value="http://plr.moh.bc.ca/fhir/Practitioner/12345"/>
          <resource>
            <Practitioner>
              <id value="Example-AddPractitioner-Practitioner"/>
              <meta>
                <profile value="http://hl7.org/fhir/ca-bc/provider/StructureDefinition/bc-practitioner"/>
              </meta>
              <contained>
                <Organization>
                  <id value="qualificationOrganization"/>
                  <meta>
                    <profile value="http://hl7.org/fhir/ca-bc/provider/StructureDefinition/bc-organization"/>
                  </meta>
                  <name value="CREDENTIAL_CREDENTIALGRANTINGINSTTXT"/>
                  <address>
                    <city value="CALGARY"/>
                    <state value="AB"/>
                    <country value="CA"/>
                  </address>
                </Organization>
              </contained>
              <extension url="http://hl7.org/fhir/ca-bc/provider/StructureDefinition/bc-period-extension">
                <valuePeriod>
                  <start value="2000-01-01"/>
                  <end value="2020-01-01"/>
                </valuePeriod>
              </extension>
              <extension url="http://hl7.org/fhir/ca-bc/provider/StructureDefinition/bc-license-status-extension">
                <extension url="statusCode">
                  <valueCodeableConcept>
                    <coding>
                      <system value="http://terminology.hl7.org/CodeSystem/v3-RoleStatus"/>
                      <code value="active"/>
                    </coding>
                  </valueCodeableConcept>
                </extension>
                <extension url="period">
                  <valuePeriod>
                    <start value="2000-01-01"/>
                    <end value="2020-01-01"/>
                  </valuePeriod>
                </extension>
                <extension url="statusReasonCode">
                  <valueCodeableConcept>
                    <coding>
                      <system value="http://example.org/status_reason_code"/>
                      <code value="PRAC"/>
                    </coding>
                  </valueCodeableConcept>
                </extension>
                <extension url="custodianId">
                  <valueIdentifier>
                    <system value="urn:oid:2.16.840.1.113883.3.40.1.16"/>
                    <value value="RNA"/>
                  </valueIdentifier>
                </extension>
              </extension>
              <extension url="http://hl7.org/fhir/ca-bc/provider/StructureDefinition/bc-end-reason-extension">
                <extension url="custodianId">
                  <valueIdentifier>
                    <system value="urn:oid:2.16.840.1.113883.3.40.1.16"/>
                    <value value="RNA"/>
                  </valueIdentifier>
                </extension>
                <extension url="endReasonCode">
                  <valueCodeableConcept>
                    <coding>
                      <system value="http://example.org/status_reason_code"/>
                      <code value="PRAC"/>
                    </coding>
                  </valueCodeableConcept>
                </extension>
              </extension>
              <extension url="http://hl7.org/fhir/ca-bc/provider/StructureDefinition/bc-practitioner-deathdate-extension">
                <valueDateTime value="2000-02-01"/>
              </extension>
              <extension url="http://hl7.org/fhir/ca-bc/provider/StructureDefinition/bc-birthplace-extension">
                <valueAddress>
                  <state value="AL"/>
                  <country value="US"/>
                </valueAddress>
              </extension>
              <extension url="http://hl7.org/fhir/ca-bc/provider/StructureDefinition/bc-practitioner-disciplinary-action-extension">
                <extension url="identifier">
                  <valueIdentifier>
                    <system value="urn:oid:2.16.840.1.113883.3.40.1.4"/>
                    <value value="DISCIPLINARY_ACTION_TEST1"/>
                  </valueIdentifier>
                </extension>
                <extension url="description">
                  <valueString value="DISCIPLINARYACTION_DESCRIPTIONTXT_1"/>
                </extension>
                <extension url="http://hl7.org/fhir/ca-bc/provider/StructureDefinition/bc-period-extension">
                  <valuePeriod>
                    <start value="1950-11-20T00:00:00-07:00"/>
                    <end value="2020-01-01"/>
                  </valuePeriod>
                </extension>
                <extension url="archiveDate">
                  <valueDateTime value="2020-01-01"/>
                </extension>
                <extension url="displayFlag">
                  <valueBoolean value="true"/>
                </extension>
              </extension>
              <extension url="http://hl7.org/fhir/ca-bc/provider/StructureDefinition/bc-practitioner-confidentiality-extension">
                <extension url="code">
                  <valueCodeableConcept>
                    <coding>
                      <system value="http://terminology.hl7.org/CodeSystem/v3-Confidentiality"/>
                      <code value="N"/>
                    </coding>
                  </valueCodeableConcept>
                </extension>
                <extension url="http://hl7.org/fhir/ca-bc/provider/StructureDefinition/bc-period-extension">
                  <valuePeriod>
                    <start value="2000-01-01"/>
                    <end value="2020-01-01"/>
                  </valuePeriod>
                </extension>
              </extension>
              <extension url="http://hl7.org/fhir/ca-bc/provider/StructureDefinition/bc-note-extension">
                <extension url="identifier">
                  <valueIdentifier>
                    <system value="urn:oid:2.16.840.1.113883.3.40.1.6"/>
                    <value value="noteID1"/>
                  </valueIdentifier>
                </extension>
                <extension url="text">
                  <valueString value="Note text sample"/>
                </extension>
                <extension url="http://hl7.org/fhir/ca-bc/provider/StructureDefinition/bc-period-extension">
                  <valuePeriod>
                    <start value="2000-01-01"/>
                    <end value="2020-01-01"/>
                  </valuePeriod>
                </extension>
              </extension>
              <extension url="http://hl7.org/fhir/ca-bc/provider/StructureDefinition/bc-practitioner-condition-extension">
                <extension url="identifier">
                  <valueIdentifier>
                    <system value="urn:oid:2.16.840.1.113883.3.40.1.1"/>
                    <value value="23"/>
                  </valueIdentifier>
                </extension>
                <extension url="http://hl7.org/fhir/ca-bc/provider/StructureDefinition/bc-period-extension">
                  <valuePeriod>
                    <start value="2000-01-01"/>
                    <end value="2020-01-01"/>
                  </valuePeriod>
                </extension>
                <extension url="restriction">
                  <valueBoolean value="true"/>
                </extension>
                <extension url="restrictionText">
                  <valueString value="CONDITION_RESTRICTION_EXPLANATION TEXT"/>
                </extension>
                <extension url="code">
                  <valueCodeableConcept>
                    <coding>
                      <system value="http://example.org/condition_type_code"/>
                      <code value="LOC"/>
                    </coding>
                  </valueCodeableConcept>
                </extension>
              </extension>
              <extension url="http://hl7.org/fhir/ca-bc/provider/StructureDefinition/bc-practitioner-relationship-extension">
                <extension url="http://hl7.org/fhir/ca-bc/provider/StructureDefinition/bc-period-extension">
                  <valuePeriod>
                    <start value="2000-01-01"/>
                    <end value="2020-01-01"/>
                  </valuePeriod>
                </extension>
                <extension url="practitioner">
                  <valueReference>
                    <reference value="Practitioner/Example-AddPractitioner-RelatedPractitioner"/>
                  </valueReference>
                </extension>
                <extension url="type">
                  <valueCodeableConcept>
                    <coding>
                      <system value="http://example.org/provider_relationship_type_code"/>
                      <code value="LOC"/>
                    </coding>
                  </valueCodeableConcept>
                </extension>
              </extension>
              <identifier>
                <system value="urn:oid:2.16.840.1.113883.3.40.2.4"/>
                <value value="MD20180719V01"/>
                <period>
                  <start value="2000-01-01"/>
                  <end value="2020-01-01"/>
                </period>
              </identifier>
              <active value="true"/>
              <name>
                <use value="official"/>
                <family value="KELASEY"/>
                <given value="SONYA"/>
                <given value="NAME PRSNSECONDGIVENNAMETXT"/>
                <given value="NAME PRSNTHIRDGIVENNAMETXT"/>
                <prefix value="PRSNPREFIX"/>
                <suffix value="PRSNSUFFIX"/>
                <period>
                  <start value="2000-01-01"/>
                  <end value="2020-01-01"/>
                </period>
              </name>
              <telecom>
                <system value="phone"/>
                <value value="2507654333"/>
                <use value="home"/>
                <period>
                  <start value="2000-01-01"/>
                  <end value="2020-01-01"/>
                </period>
              </telecom>
              <telecom>
                <system value="email"/>
                <value value="hey@day.com"/>
                <use value="work"/>
                <period>
                  <start value="2000-01-01"/>
                  <end value="2020-01-01"/>
                </period>
              </telecom>
              <address>
                <use value="work"/>
                <type value="postal"/>
                <line value="91 RD"/>
                <line value="ADDRESS ADDRESSLINE2TXT"/>
                <line value="ADDRESS ADDRESSLINE3TXT"/>
                <city value="VICTORIA"/>
                <state value="BC"/>
                <postalCode value="V8V8V8"/>
                <period>
                  <start value="2000-01-01"/>
                  <end value="2020-01-01"/>
                </period>
              </address>
              <gender value="female"/>
              <birthDate value="1951-11-12">
                <extension url="http://hl7.org/fhir/ca-bc/provider/StructureDefinition/bc-birthtime-extension">
                  <valueDateTime value="1951-11-12T00:00:01-06:00"/>
                </extension>
              </birthDate>
              <qualification>
                <extension url="http://hl7.org/fhir/ca-bc/provider/StructureDefinition/bc-practitioner-qualification-issue-date-extension">
                  <valueDateTime value="2001"/>
                </extension>
                <identifier>
                  <system value="urn:oid:2.16.840.1.113883.3.40.1.2"/>
                  <value value="CREDENTIAL_REGISTRATIONNUMBERTXT"/>
                </identifier>
                <code>
                  <coding>
                    <system value="https://fhir.infoway-inforoute.ca/CodeSystem/scpqual"/>
                    <code value="BD"/>
                  </coding>
                  <text value="CREDENTIAL_CREDENTIALDESIGNATIONTXT"/>
                </code>
                <period>
                  <start value="2000-01-01"/>
                  <end value="2020-01-01"/>
                </period>
                <issuer>
                  <reference value="#qualificationOrganization"/>
                </issuer>
              </qualification>
            </Practitioner>
          </resource>
          <request>
            <method value="POST"/>
            <url value="http://plr.moh.bc.ca/fhir/Practitioner"/>
          </request>
        </entry>
        <entry>
          <fullUrl value="http://plr.moh.bc.ca/fhir/PractitionerRole/12345"/>
          <resource>
            <PractitionerRole>
              <id value="Example-AddPractitioner-PractitionerRole"/>
              <meta>
                <profile value="http://hl7.org/fhir/ca-bc/provider/StructureDefinition/bc-practitioner-role"/>
              </meta>
              <practitioner>
                <reference value="Practitioner/Example-AddPractitioner-Practitioner"/>
              </practitioner>
              <organization>
                <display value="BC"/>
              </organization>
              <code>
                <coding>
                  <system value="https://fhir.infoway-inforoute.ca/CodeSystem/scptype"/>
                  <code value="MD"/>
                </coding>
              </code>
              <specialty>
                <extension url="http://hl7.org/fhir/ca-bc/provider/StructureDefinition/bc-period-extension">
                  <valuePeriod>
                    <start value="2000-01-01"/>
                    <end value="2020-01-01"/>
                  </valuePeriod>
                </extension>
                <extension url="http://hl7.org/fhir/ca-bc/provider/StructureDefinition/bc-end-reason-extension">
                  <extension url="endReasonCode">
                    <valueCodeableConcept>
                      <coding>
                        <system value="http://example.org/status_reason_code"/>
                        <code value="PRAC"/>
                      </coding>
                    </valueCodeableConcept>
                  </extension>
                  <extension url="custodianId">
                    <valueIdentifier>
                      <system value="http://example.org/custodian-ids"/>
                      <value value="123456679"/>
                    </valueIdentifier>
                  </extension>
                </extension>
                <coding>
                  <system value="http://snomed.info/sct"/>
                  <code value="419772000"/>
                </coding>
              </specialty>
              <location>
                <extension url="http://hl7.org/fhir/ca-bc/provider/StructureDefinition/bc-period-extension">
                  <valuePeriod>
                    <start value="2000-01-01"/>
                    <end value="2020-01-01"/>
                  </valuePeriod>
                </extension>
                <reference value="Location/Example-AddPractitioner-WorkLocation"/>
              </location>
            </PractitionerRole>
          </resource>
          <request>
            <method value="POST"/>
            <url value="http://plr.moh.bc.ca/fhir/PractitionerRole"/>
          </request>
        </entry>
      </Bundle>
    </resource>
    <request>
      <method value="POST"/>
      <url value="http://plr.moh.bc.ca/fhir/Bundle"/>
    </request>
  </entry>
  <entry>
    <fullUrl value="http://plr.moh.bc.ca/fhir/Bundle/23456"/>
    <resource>
      <Bundle>
        <id value="Example-AddOrganization-Bundle"/>
        <meta>
          <profile value="http://hl7.org/fhir/ca-bc/provider/StructureDefinition/bc-organization-bundle"/>
        </meta>
        <type value="transaction"/>
        <entry>
          <fullUrl value="http://plr.moh.bc.ca/fhir/Organization/12345"/>
          <resource>
            <Organization>
              <id value="Example-AddOrganization-Organization"/>
              <meta>
                <profile value="http://hl7.org/fhir/ca-bc/provider/StructureDefinition/bc-organization"/>
              </meta>
              <identifier>
                <system value="urn:oid:2.16.840.1.113883.3.40.2.3"/>
                <value value="CPN.00147422.BC.PRS"/>
              </identifier>
              <identifier>
                <system value="urn:oid:2.16.840.1.113883.3.40.2.8"/>
                <value value="IPC.00147422.BC.PRS"/>
              </identifier>
              <identifier>
                <system value="urn:oid:2.16.840.1.113883.3.40.2.23"/>
                <value value="1000095892"/>
              </identifier>
              <active value="true"/>
              <name value="Kelowna Clinic">
                <extension url="http://hl7.org/fhir/ca-bc/provider/StructureDefinition/bc-name-use-extension">
                  <valueCode value="official"/>
                </extension>
                <extension url="http://hl7.org/fhir/ca-bc/provider/StructureDefinition/bc-period-extension">
                  <valuePeriod>
                    <start value="2014-01-31T00:00:00-07:00"/>
                  </valuePeriod>
                </extension>
              </name>
              <telecom>
                <system value="phone"/>
                <value value="7786428585"/>
                <use value="work"/>
                <period>
                  <start value="2014-01-31T00:00:00-07:00"/>
                </period>
              </telecom>
              <address>
                <use value="work"/>
                <type value="postal"/>
                <line value="2541 Townsend Rd"/>
                <city value="Sooke"/>
                <state value="BC"/>
                <postalCode value="V4R8T8"/>
                <country value="CA"/>
                <period>
                  <start value="2014-01-31T00:00:00-07:00"/>
                </period>
              </address>
            </Organization>
          </resource>
          <request>
            <method value="POST"/>
            <url value="http://plr.moh.bc.ca/fhir/Organization"/>
          </request>
        </entry>
        <entry>
          <fullUrl value="http://plr.moh.bc.ca/fhir/OrganizationAffiliation/12345"/>
          <resource>
            <OrganizationAffiliation>
              <id value="Example-AddOrganization-OrganizationAffiliation"/>
              <meta>
                <profile value="http://hl7.org/fhir/ca-bc/provider/StructureDefinition/bc-organization-affiliation"/>
              </meta>
              <active value="true"/>
              <period>
                <start value="1989-04-04T00:00:00-07:00"/>
              </period>
              <organization>
                <reference value="Organization/Example-AddOrganization-Organization"/>
              </organization>
              <location>
                <reference value="Location/Example-AddOrganization-Location"/>
              </location>
            </OrganizationAffiliation>
          </resource>
          <request>
            <method value="POST"/>
            <url value="http://plr.moh.bc.ca/fhir/OrganizationAffiliation"/>
          </request>
        </entry>
      </Bundle>
    </resource>
    <request>
      <method value="POST"/>
      <url value="http://plr.moh.bc.ca/fhir/Bundle"/>
    </request>
  </entry>
  <entry>
    <fullUrl value="http://plr.moh.bc.ca/fhir/Bundle/34567"/>
    <resource>
      <Bundle>
        <id value="Example-AddLocation-Bundle"/>
        <meta>
          <profile value="http://hl7.org/fhir/ca-bc/provider/StructureDefinition/bc-location-bundle"/>
        </meta>
        <type value="transaction"/>
        <entry>
          <fullUrl value="http://plr.moh.bc.ca/fhir/Location/12345"/>
          <resource>
            <Location>
              <id value="Example-AddOrganization-Location"/>
              <meta>
                <profile value="http://hl7.org/fhir/ca-bc/provider/StructureDefinition/bc-location"/>
              </meta>
              <identifier>
                <system value="urn:oid:2.16.840.1.113883.3.40.1.10"/>
                <value value="111"/>
              </identifier>
              <name value="General Hospital">
                <extension url="http://hl7.org/fhir/ca-bc/provider/StructureDefinition/bc-period-extension">
                  <valuePeriod>
                    <start value="2000-01-01"/>
                  </valuePeriod>
                </extension>
              </name>
              <type>
                <coding>
                  <system value="http://terminology.hl7.org/CodeSystem/v3-RoleCode"/>
                  <code value="HOSP"/>
                </coding>
              </type>
              <telecom>
                <system value="fax"/>
                <value value="55555555551"/>
                <use value="work"/>
                <period>
                  <start value="1982-03-04T00:00:00-07:00"/>
                </period>
              </telecom>
              <telecom>
                <system value="fax"/>
                <value value="55555555555"/>
                <use value="home"/>
                <period>
                  <start value="1981-04-04T00:00:00-07:00"/>
                </period>
              </telecom>
              <telecom>
                <system value="url"/>
                <value value="ftp://someftp.com"/>
                <use value="mobile"/>
                <period>
                  <start value="1991-01-01T00:00:00-07:00"/>
                </period>
              </telecom>
              <address>
                <use value="work"/>
                <type value="postal"/>
                <line value="wl line 11"/>
                <line value="wl line 22"/>
                <line value="wl line 33"/>
                <city value="wl city 2"/>
                <state value="BC"/>
                <postalCode value="V8V 8V8"/>
                <country value="CA"/>
                <period>
                  <start value="1988-10-10T00:00:00-07:00"/>
                </period>
              </address>
            </Location>
          </resource>
          <request>
            <method value="POST"/>
            <url value="http://plr.moh.bc.ca/fhir/Location"/>
          </request>
        </entry>
      </Bundle>
    </resource>
    <request>
      <method value="POST"/>
      <url value="http://plr.moh.bc.ca/fhir/Bundle"/>
    </request>
  </entry>
</Bundle>