{
  "resourceType": "Bundle",
  "id": "Example-Batch-Bundle",
  "meta": {
    "profile": [
      "http://hl7.org/fhir/ca-bc/provider/StructureDefinition/bc-batch-bundle"
    ]
  },
  "type": "batch",
  "entry": [
    {
      "fullUrl": "http://plr.moh.bc.ca/fhir/Bundle/12345",
      "resource": {
        "resourceType": "Bundle",
        "id": "Example-AddPractitioner-Bundle",
        "meta": {
          "profile": [
            "http://hl7.org/fhir/ca-bc/provider/StructureDefinition/bc-practitioner-bundle"
          ]
        },
        "type": "transaction",
        "entry": [
          {
            "fullUrl": "http://plr.moh.bc.ca/fhir/Practitioner/12345",
            "resource": {
              "resourceType": "Practitioner",
              "id": "Example-AddPractitioner-Practitioner",
              "meta": {
                "profile": [
                  "http://hl7.org/fhir/ca-bc/provider/StructureDefinition/bc-practitioner"
                ]
              },
              "contained": [
                {
                  "resourceType": "Organization",
                  "id": "qualificationOrganization",
                  "meta": {
                    "profile": [
                      "http://hl7.org/fhir/ca-bc/provider/StructureDefinition/bc-organization"
                    ]
                  },
                  "name": "CREDENTIAL_CREDENTIALGRANTINGINSTTXT",
                  "address": [
                    {
                      "city": "CALGARY",
                      "state": "AB",
                      "country": "CA"
                    }
                  ]
                }
              ],
              "extension": [
                {
                  "url": "http://hl7.org/fhir/ca-bc/provider/StructureDefinition/bc-period-extension",
                  "valuePeriod": {
                    "start": "2000-01-01",
                    "end": "2020-01-01"
                  }
                },
                {
                  "extension": [
                    {
                      "url": "statusCode",
                      "valueCodeableConcept": {
                        "coding": [
                          {
                            "system": "http://terminology.hl7.org/CodeSystem/v3-RoleStatus",
                            "code": "active"
                          }
                        ]
                      }
                    },
                    {
                      "url": "statusReasonCode",
                      "valueCodeableConcept": {
                        "coding": [
                          {
                            "system": "http://hl7.org/fhir/bc-plr/bc-status-reason-code",
                            "code": "PRAC"
                          }
                        ]
                      }
                    },
                    {
                      "url": "statusClassCode",
                      "valueCodeableConcept": {
                        "coding": [
                          {
                            "system": "http://hl7.org/fhir/bc-plr/bc-status-class-code",
                            "code": "LIC"
                          }
                        ]
                      }
                    },
                    {
                      "extension": [
                        {
                          "url": "custodianId",
                          "valueIdentifier": {
                            "assigner": {
                              "display": "RNA"
                            }
                          }
                        }
                      ],
                      "url": "http://hl7.org/fhir/ca-bc/provider/StructureDefinition/bc-end-reason-extension"
                    },
                    {
                      "url": "http://hl7.org/fhir/ca-bc/provider/StructureDefinition/bc-period-extension",
                      "valuePeriod": {
                        "start": "2000-01-01",
                        "end": "2020-01-01"
                      }
                    }
                  ],
                  "url": "http://hl7.org/fhir/ca-bc/provider/StructureDefinition/bc-license-status-extension"
                },
                {
                  "extension": [
                    {
                      "url": "custodianId",
                      "valueIdentifier": {
                        "assigner": {
                          "display": "RNA"
                        }
                      }
                    },
                    {
                      "url": "endReasonCode",
                      "valueCodeableConcept": {
                        "coding": [
                          {
                            "system": "http://hl7.org/fhir/bc-plr/bc-status-reason-code",
                            "code": "PRAC"
                          }
                        ]
                      }
                    }
                  ],
                  "url": "http://hl7.org/fhir/ca-bc/provider/StructureDefinition/bc-end-reason-extension"
                },
                {
                  "url": "http://hl7.org/fhir/ca-bc/provider/StructureDefinition/bc-practitioner-deathdate-extension",
                  "valueDateTime": "2000-02-01"
                },
                {
                  "url": "http://hl7.org/fhir/ca-bc/provider/StructureDefinition/bc-birthplace-extension",
                  "valueAddress": {
                    "state": "AL",
                    "country": "US"
                  }
                },
                {
                  "extension": [
                    {
                      "url": "identifier",
                      "valueIdentifier": {
                        "system": "http://hl7.org/fhir/bc-plr/bc-disciplinary-action-id",
                        "value": "DISCIPLINARY_ACTION_TEST1"
                      }
                    },
                    {
                      "url": "description",
                      "valueString": "DISCIPLINARYACTION_DESCRIPTIONTXT_1"
                    },
                    {
                      "url": "http://hl7.org/fhir/ca-bc/provider/StructureDefinition/bc-period-extension",
                      "valuePeriod": {
                        "start": "1950-11-20T00:00:00-07:00",
                        "end": "2020-01-01"
                      }
                    },
                    {
                      "url": "archiveDate",
                      "valueDateTime": "2020-01-01"
                    },
                    {
                      "url": "displayFlag",
                      "valueBoolean": true
                    }
                  ],
                  "url": "http://hl7.org/fhir/ca-bc/provider/StructureDefinition/bc-practitioner-disciplinary-action-extension"
                },
                {
                  "extension": [
                    {
                      "url": "code",
                      "valueCodeableConcept": {
                        "coding": [
                          {
                            "system": "http://terminology.hl7.org/CodeSystem/v3-Confidentiality",
                            "code": "N"
                          }
                        ]
                      }
                    },
                    {
                      "url": "http://hl7.org/fhir/ca-bc/provider/StructureDefinition/bc-period-extension",
                      "valuePeriod": {
                        "start": "2000-01-01",
                        "end": "2020-01-01"
                      }
                    }
                  ],
                  "url": "http://hl7.org/fhir/ca-bc/provider/StructureDefinition/bc-practitioner-confidentiality-extension"
                },
                {
                  "extension": [
                    {
                      "url": "identifier",
                      "valueIdentifier": {
                        "system": "http://hl7.org/fhir/bc-plr/bc-note-id",
                        "value": "noteID1"
                      }
                    },
                    {
                      "url": "text",
                      "valueString": "Note text sample"
                    },
                    {
                      "url": "http://hl7.org/fhir/ca-bc/provider/StructureDefinition/bc-period-extension",
                      "valuePeriod": {
                        "start": "2000-01-01",
                        "end": "2020-01-01"
                      }
                    }
                  ],
                  "url": "http://hl7.org/fhir/ca-bc/provider/StructureDefinition/bc-note-extension"
                },
                {
                  "extension": [
                    {
                      "url": "identifier",
                      "valueIdentifier": {
                        "system": "http://hl7.org/fhir/bc-plr/bc-condition-type-code",
                        "value": "23"
                      }
                    },
                    {
                      "url": "http://hl7.org/fhir/ca-bc/provider/StructureDefinition/bc-period-extension",
                      "valuePeriod": {
                        "start": "2000-01-01",
                        "end": "2020-01-01"
                      }
                    },
                    {
                      "url": "restriction",
                      "valueBoolean": true
                    },
                    {
                      "url": "restrictionText",
                      "valueString": "CONDITION_RESTRICTION_EXPLANATION TEXT"
                    },
                    {
                      "url": "code",
                      "valueCodeableConcept": {
                        "coding": [
                          {
                            "system": "http://hl7.org/fhir/bc-plr/bc-condition-type-code",
                            "code": "LOC"
                          }
                        ]
                      }
                    }
                  ],
                  "url": "http://hl7.org/fhir/ca-bc/provider/StructureDefinition/bc-practitioner-condition-extension"
                },
                {
                  "extension": [
                    {
                      "url": "http://hl7.org/fhir/ca-bc/provider/StructureDefinition/bc-period-extension",
                      "valuePeriod": {
                        "start": "2000-01-01",
                        "end": "2020-01-01"
                      }
                    },
                    {
                      "url": "practitioner",
                      "valueReference": {
                        "reference": "Practitioner/Example-AddPractitioner-RelatedPractitioner"
                      }
                    },
                    {
                      "url": "http://hl7.org/fhir/ca-bc/provider/StructureDefinition/bc-relationship-type-extension",
                      "valueCodeableConcept": {
                        "coding": [
                          {
                            "system": "http://hl7.org/fhir/bc-plr/bc-relationship-type-code",
                            "code": "LOC"
                          }
                        ]
                      }
                    }
                  ],
                  "url": "http://hl7.org/fhir/ca-bc/provider/StructureDefinition/bc-practitioner-relationship-extension"
                }
              ],
              "identifier": [
                {
                  "system": "urn:oid:2.16.840.1.113883.3.40.2.4",
                  "value": "MD20180719V01",
                  "period": {
                    "start": "2000-01-01",
                    "end": "2020-01-01"
                  }
                }
              ],
              "active": true,
              "name": [
                {
                  "use": "official",
                  "family": "KELASEY",
                  "given": [
                    "SONYA",
                    "NAME PRSNSECONDGIVENNAMETXT",
                    "NAME PRSNTHIRDGIVENNAMETXT"
                  ],
                  "prefix": [
                    "PRSNPREFIX"
                  ],
                  "suffix": [
                    "PRSNSUFFIX"
                  ],
                  "period": {
                    "start": "2000-01-01",
                    "end": "2020-01-01"
                  }
                }
              ],
              "telecom": [
                {
                  "extension": [
                    {
                      "url": "http://hl7.org/fhir/ca-bc/provider/StructureDefinition/bc-communication-purpose-code-extension",
                      "valueCodeableConcept": {
                        "coding": [
                          {
                            "system": "http://hl7.org/fhir/bc-plr/bc-communication-purpose-code",
                            "code": "HC"
                          }
                        ]
                      }
                    }
                  ],
                  "system": "phone",
                  "value": "2507654333",
                  "period": {
                    "start": "2000-01-01",
                    "end": "2020-01-01"
                  }
                },
                {
                  "extension": [
                    {
                      "url": "http://hl7.org/fhir/ca-bc/provider/StructureDefinition/bc-communication-purpose-code-extension",
                      "valueCodeableConcept": {
                        "coding": [
                          {
                            "system": "http://hl7.org/fhir/bc-plr/bc-communication-purpose-code",
                            "code": "BC"
                          }
                        ]
                      }
                    }
                  ],
                  "system": "email",
                  "value": "hey@day.com",
                  "period": {
                    "start": "2000-01-01",
                    "end": "2020-01-01"
                  }
                }
              ],
              "address": [
                {
                  "extension": [
                    {
                      "url": "http://hl7.org/fhir/ca-bc/provider/StructureDefinition/bc-communication-purpose-code-extension",
                      "valueCodeableConcept": {
                        "coding": [
                          {
                            "system": "http://hl7.org/fhir/bc-plr/bc-communication-purpose-code",
                            "code": "BC"
                          }
                        ]
                      }
                    }
                  ],
                  "type": "postal",
                  "line": [
                    "91 RD",
                    "ADDRESS ADDRESSLINE2TXT",
                    "ADDRESS ADDRESSLINE3TXT"
                  ],
                  "city": "VICTORIA",
                  "state": "BC",
                  "postalCode": "V8V8V8",
                  "period": {
                    "start": "2000-01-01",
                    "end": "2020-01-01"
                  }
                }
              ],
              "gender": "female",
              "birthDate": "1951-11-12",
              "_birthDate": {
                "extension": [
                  {
                    "url": "http://hl7.org/fhir/ca-bc/provider/StructureDefinition/bc-birthtime-extension",
                    "valueDateTime": "1951-11-12T00:00:01-06:00"
                  }
                ]
              },
              "qualification": [
                {
                  "extension": [
                    {
                      "extension": [
                        {
                          "url": "designation",
                          "valueString": "designation"
                        },
                        {
                          "url": "equivalencyFlag",
                          "valueBoolean": true
                        },
                        {
                          "url": "registrationNumber",
                          "valueString": "registration number"
                        },
                        {
                          "url": "issuedDate",
                          "valueDateTime": "2000-01-01"
                        }
                      ],
                      "url": "http://hl7.org/fhir/ca-bc/provider/StructureDefinition/bc-practitioner-qualification-extension"
                    }
                  ],
                  "code": {
                    "coding": [
                      {
                        "system": "https://fhir.infoway-inforoute.ca/CodeSystem/scpqual",
                        "code": "BD"
                      }
                    ],
                    "text": "CREDENTIAL_CREDENTIALDESIGNATIONTXT"
                  },
                  "period": {
                    "start": "2000-01-01",
                    "end": "2020-01-01"
                  },
                  "issuer": {
                    "reference": "#qualificationOrganization"
                  }
                }
              ],
              "communication": [
                {
                  "extension": [
                    {
                      "url": "http://hl7.org/fhir/ca-bc/provider/StructureDefinition/bc-period-extension",
                      "valuePeriod": {
                        "start": "2000-01-01"
                      }
                    },
                    {
                      "url": "http://hl7.org/fhir/ca-bc/provider/StructureDefinition/bc-specialty-source-extension",
                      "valueString": "Language Source"
                    }
                  ],
                  "coding": [
                    {
                      "system": "http://hl7.org/fhir/bc-plr/bc-language-code",
                      "code": "EN"
                    }
                  ]
                }
              ]
            },
            "request": {
              "method": "POST",
              "url": "http://plr.moh.bc.ca/fhir/Practitioner"
            }
          },
          {
            "fullUrl": "http://plr.moh.bc.ca/fhir/PractitionerRole/12345",
            "resource": {
              "resourceType": "PractitionerRole",
              "id": "Example-AddPractitioner-PractitionerRole",
              "meta": {
                "profile": [
                  "http://hl7.org/fhir/ca-bc/provider/StructureDefinition/bc-practitioner-role"
                ]
              },
              "practitioner": {
                "reference": "Practitioner/Example-AddPractitioner-Practitioner"
              },
              "organization": {
                "display": "BC"
              },
              "code": [
                {
                  "coding": [
                    {
                      "system": "https://fhir.infoway-inforoute.ca/CodeSystem/scptype",
                      "code": "MD"
                    }
                  ]
                }
              ],
              "specialty": [
                {
                  "extension": [
                    {
                      "url": "http://hl7.org/fhir/ca-bc/provider/StructureDefinition/bc-period-extension",
                      "valuePeriod": {
                        "start": "2000-01-01",
                        "end": "2020-01-01"
                      }
                    },
                    {
                      "extension": [
                        {
                          "url": "endReasonCode",
                          "valueCodeableConcept": {
                            "coding": [
                              {
                                "system": "http://hl7.org/fhir/bc-plr/bc-end-reason-code",
                                "code": "CORR"
                              }
                            ]
                          }
                        },
                        {
                          "url": "custodianId",
                          "valueIdentifier": {
                            "assigner": {
                              "display": "RNA"
                            }
                          }
                        }
                      ],
                      "url": "http://hl7.org/fhir/ca-bc/provider/StructureDefinition/bc-end-reason-extension"
                    },
                    {
                      "url": "http://hl7.org/fhir/ca-bc/provider/StructureDefinition/bc-specialty-source-extension",
                      "valueString": "Source"
                    }
                  ],
                  "coding": [
                    {
                      "system": "http://snomed.info/sct",
                      "code": "419772000"
                    }
                  ]
                }
              ],
              "location": [
                {
                  "extension": [
                    {
                      "url": "http://hl7.org/fhir/ca-bc/provider/StructureDefinition/bc-period-extension",
                      "valuePeriod": {
                        "start": "2000-01-01",
                        "end": "2020-01-01"
                      }
                    }
                  ],
                  "reference": "Location/Example-AddPractitioner-WorkLocation"
                }
              ]
            },
            "request": {
              "method": "POST",
              "url": "http://plr.moh.bc.ca/fhir/PractitionerRole"
            }
          }
        ]
      },
      "request": {
        "method": "PUT",
        "url": "http://plr.moh.bc.ca/fhir/Bundle"
      }
    },
    {
      "fullUrl": "http://plr.moh.bc.ca/fhir/Bundle/23456",
      "resource": {
        "resourceType": "Bundle",
        "id": "Example-AddOrganization-Bundle",
        "meta": {
          "profile": [
            "http://hl7.org/fhir/ca-bc/provider/StructureDefinition/bc-organization-bundle"
          ]
        },
        "type": "transaction",
        "entry": [
          {
            "fullUrl": "http://plr.moh.bc.ca/fhir/Organization/12345",
            "resource": {
              "resourceType": "Organization",
              "id": "Example-AddOrganization-Organization",
              "meta": {
                "profile": [
                  "http://hl7.org/fhir/ca-bc/provider/StructureDefinition/bc-organization"
                ]
              },
              "identifier": [
                {
                  "type": {
                    "coding": [
                      {
                        "code": "CPN"
                      }
                    ]
                  },
                  "system": "http://hl7.org/fhir/bc-plr/bc-identifer-type-code",
                  "value": "CPN.00147422.BC.PRS"
                },
                {
                  "type": {
                    "coding": [
                      {
                        "code": "IPC"
                      }
                    ]
                  },
                  "system": "http://hl7.org/fhir/bc-plr/bc-identifer-type-code",
                  "value": "IPC.00147422.BC.PRS"
                },
                {
                  "type": {
                    "coding": [
                      {
                        "code": "ORGID"
                      }
                    ]
                  },
                  "system": "http://hl7.org/fhir/bc-plr/bc-identifer-type-code",
                  "value": "1000095892"
                }
              ],
              "active": true,
              "name": "Kelowna Clinic",
              "_name": {
                "extension": [
                  {
                    "url": "http://hl7.org/fhir/ca-bc/provider/StructureDefinition/bc-name-use-extension",
                    "valueCode": "official"
                  },
                  {
                    "url": "http://hl7.org/fhir/ca-bc/provider/StructureDefinition/bc-period-extension",
                    "valuePeriod": {
                      "start": "2014-01-31T00:00:00-07:00"
                    }
                  }
                ]
              },
              "telecom": [
                {
                  "extension": [
                    {
                      "url": "http://hl7.org/fhir/ca-bc/provider/StructureDefinition/bc-communication-purpose-code-extension",
                      "valueCodeableConcept": {
                        "coding": [
                          {
                            "system": "http://hl7.org/fhir/bc-plr/bc-communication-purpose-code",
                            "code": "BC"
                          }
                        ]
                      }
                    }
                  ],
                  "system": "phone",
                  "value": "7786428585",
                  "period": {
                    "start": "2014-01-31T00:00:00-07:00"
                  }
                }
              ],
              "address": [
                {
                  "extension": [
                    {
                      "url": "http://hl7.org/fhir/ca-bc/provider/StructureDefinition/bc-communication-purpose-code-extension",
                      "valueCodeableConcept": {
                        "coding": [
                          {
                            "system": "http://hl7.org/fhir/bc-plr/bc-communication-purpose-code",
                            "code": "BC"
                          }
                        ]
                      }
                    }
                  ],
                  "type": "postal",
                  "line": [
                    "2541 Townsend Rd"
                  ],
                  "city": "Sooke",
                  "state": "BC",
                  "postalCode": "V4R8T8",
                  "country": "CA",
                  "period": {
                    "start": "2014-01-31T00:00:00-07:00"
                  }
                }
              ]
            },
            "request": {
              "method": "POST",
              "url": "http://plr.moh.bc.ca/fhir/Organization"
            }
          },
          {
            "fullUrl": "http://plr.moh.bc.ca/fhir/OrganizationAffiliation/12345",
            "resource": {
              "resourceType": "OrganizationAffiliation",
              "id": "Example-AddOrganization-OrganizationAffiliation",
              "meta": {
                "profile": [
                  "http://hl7.org/fhir/ca-bc/provider/StructureDefinition/bc-organization-affiliation"
                ]
              },
              "active": true,
              "period": {
                "start": "1989-04-04T00:00:00-07:00"
              },
              "organization": {
                "reference": "Organization/Example-AddOrganization-Organization"
              },
              "location": [
                {
                  "reference": "Location/Example-AddOrganization-Location"
                }
              ]
            },
            "request": {
              "method": "POST",
              "url": "http://plr.moh.bc.ca/fhir/OrganizationAffiliation"
            }
          }
        ]
      },
      "request": {
        "method": "PUT",
        "url": "http://plr.moh.bc.ca/fhir/Bundle"
      }
    },
    {
      "fullUrl": "http://plr.moh.bc.ca/fhir/Bundle/34567",
      "resource": {
        "resourceType": "Bundle",
        "id": "Example-AddLocation-Bundle",
        "meta": {
          "profile": [
            "http://hl7.org/fhir/ca-bc/provider/StructureDefinition/bc-location-bundle"
          ]
        },
        "type": "transaction",
        "entry": [
          {
            "fullUrl": "http://plr.moh.bc.ca/fhir/Location/12345",
            "resource": {
              "resourceType": "Location",
              "id": "Example-AddOrganization-Location",
              "meta": {
                "profile": [
                  "http://hl7.org/fhir/ca-bc/provider/StructureDefinition/bc-location"
                ]
              },
              "identifier": [
                {
                  "type": {
                    "coding": [
                      {
                        "code": "IFC"
                      }
                    ]
                  },
                  "system": "http://hl7.org/fhir/bc-plr/bc-location-identifier-type-code",
                  "value": "111"
                }
              ],
              "name": "General Hospital",
              "_name": {
                "extension": [
                  {
                    "url": "http://hl7.org/fhir/ca-bc/provider/StructureDefinition/bc-period-extension",
                    "valuePeriod": {
                      "start": "2000-01-01"
                    }
                  }
                ]
              },
              "telecom": [
                {
                  "extension": [
                    {
                      "url": "http://hl7.org/fhir/ca-bc/provider/StructureDefinition/bc-communication-purpose-code-extension",
                      "valueCodeableConcept": {
                        "coding": [
                          {
                            "system": "http://hl7.org/fhir/bc-plr/bc-communication-purpose-code",
                            "code": "BC"
                          }
                        ]
                      }
                    }
                  ],
                  "system": "fax",
                  "value": "55555555551",
                  "period": {
                    "start": "1982-03-04T00:00:00-07:00"
                  }
                },
                {
                  "extension": [
                    {
                      "url": "http://hl7.org/fhir/ca-bc/provider/StructureDefinition/bc-communication-purpose-code-extension",
                      "valueCodeableConcept": {
                        "coding": [
                          {
                            "system": "http://hl7.org/fhir/bc-plr/bc-communication-purpose-code",
                            "code": "HC"
                          }
                        ]
                      }
                    }
                  ],
                  "system": "fax",
                  "value": "55555555555",
                  "period": {
                    "start": "1981-04-04T00:00:00-07:00"
                  }
                },
                {
                  "extension": [
                    {
                      "url": "http://hl7.org/fhir/ca-bc/provider/StructureDefinition/bc-communication-purpose-code-extension",
                      "valueCodeableConcept": {
                        "coding": [
                          {
                            "system": "http://hl7.org/fhir/bc-plr/bc-communication-purpose-code",
                            "code": "MC"
                          }
                        ]
                      }
                    }
                  ],
                  "system": "url",
                  "value": "ftp://someftp.com",
                  "period": {
                    "start": "1991-01-01T00:00:00-07:00"
                  }
                }
              ],
              "address": {
                "extension": [
                  {
                    "url": "http://hl7.org/fhir/ca-bc/provider/StructureDefinition/bc-communication-purpose-code-extension",
                    "valueCodeableConcept": {
                      "coding": [
                        {
                          "system": "http://hl7.org/fhir/bc-plr/bc-communication-purpose-code",
                          "code": "BC"
                        }
                      ]
                    }
                  }
                ],
                "type": "postal",
                "line": [
                  "wl line 11",
                  "wl line 22",
                  "wl line 33"
                ],
                "city": "wl city 2",
                "state": "BC",
                "postalCode": "V8V 8V8",
                "country": "CA",
                "period": {
                  "start": "1988-10-10T00:00:00-07:00"
                }
              }
            },
            "request": {
              "method": "POST",
              "url": "http://plr.moh.bc.ca/fhir/Location"
            }
          }
        ]
      },
      "request": {
        "method": "PUT",
        "url": "http://plr.moh.bc.ca/fhir/Bundle"
      }
    }
  ]
}