{
  "resourceType": "Bundle",
  "id": "Example-AddPractitioner-Bundle",
  "meta": {
    "profile": [
      "http://hl7.org/fhir/ca-bc/provider/StructureDefinition/bc-practitioner-bundle"
    ]
  },
  "type": "transaction",
  "entry": [
    {
      "fullUrl": "http://plr.moh.bc.ca/fhir/Practitioner/12345",
      "resource": {
        "resourceType": "Practitioner",
        "id": "Example-AddPractitioner-Practitioner",
        "meta": {
          "profile": [
            "http://hl7.org/fhir/ca-bc/provider/StructureDefinition/bc-practitioner"
          ]
        },
        "text": {
          "status": "extensions",
          "div": "<div xmlns=\"http://www.w3.org/1999/xhtml\"><p><b>Generated Narrative</b></p><div style=\"display: inline-block; background-color: #d9e0e7; padding: 6px; margin: 4px; border: 1px solid #8da1b4; border-radius: 5px; line-height: 60%\"><p style=\"margin-bottom: 0px\">Resource \"Example-AddPractitioner-Practitioner\" </p><p style=\"margin-bottom: 0px\">Profile: <a href=\"StructureDefinition-bc-practitioner.html\">BCPractitioner</a></p></div><p><b>BC Valid Period Extension</b>: 2000-01-01 --&gt; 2020-01-01</p><blockquote><p><b>BC License Status Extension</b></p><p><b>value</b>: active <span style=\"background: LightGoldenRodYellow; margin: 4px; border: 1px solid khaki\"> (<a href=\"http://terminology.hl7.org/3.1.0/CodeSystem-v3-RoleStatus.html\">RoleStatus</a>#active)</span></p><p><b>value</b>: PRAC <span style=\"background: LightGoldenRodYellow; margin: 4px; border: 1px solid khaki\"> (bc-status-reason-code#PRAC)</span></p><p><b>value</b>: LIC <span style=\"background: LightGoldenRodYellow; margin: 4px; border: 1px solid khaki\"> (bc-status-class-code#LIC)</span></p><p><b>value</b>: 2000-01-01 --&gt; 2020-01-01</p></blockquote><blockquote><p><b>BC End Reason Extension</b></p><p><b>value</b>: id: ?ngen-9?</p><p><b>value</b>: PRAC <span style=\"background: LightGoldenRodYellow; margin: 4px; border: 1px solid khaki\"> (bc-status-reason-code#PRAC)</span></p></blockquote><p><b>BC Practitioner Date of Death Extension</b>: 2000-02-01</p><p><b>BC Birth Place Extension</b>: AL US </p><blockquote><p><b>BC Practitioner Disciplinary Actions Extension</b></p><p><b>value</b>: id: DISCIPLINARY_ACTION_TEST1</p><p><b>value</b>: DISCIPLINARYACTION_DESCRIPTIONTXT_1</p><p><b>value</b>: 1950-11-20 12:00:00-0700 --&gt; 2020-01-01</p><p><b>value</b>: 2020-01-01</p><p><b>value</b>: true</p></blockquote><blockquote><p><b>BC Practitioner Confidentiality Extension</b></p><p><b>value</b>: normal <span style=\"background: LightGoldenRodYellow; margin: 4px; border: 1px solid khaki\"> (<a href=\"http://terminology.hl7.org/3.1.0/CodeSystem-v3-Confidentiality.html\">Confidentiality</a>#N)</span></p><p><b>value</b>: 2000-01-01 --&gt; 2020-01-01</p></blockquote><blockquote><p><b>BC Notes Extension</b></p><p><b>value</b>: id: noteID1</p><p><b>value</b>: Note text sample</p><p><b>value</b>: 2000-01-01 --&gt; 2020-01-01</p></blockquote><blockquote><p><b>BC Practitioner Conditions Extension</b></p><p><b>value</b>: id: 23</p><p><b>value</b>: 2000-01-01 --&gt; 2020-01-01</p><p><b>value</b>: true</p><p><b>value</b>: CONDITION_RESTRICTION_EXPLANATION TEXT</p><p><b>value</b>: LOC <span style=\"background: LightGoldenRodYellow; margin: 4px; border: 1px solid khaki\"> (bc-condition-type-code#LOC)</span></p></blockquote><blockquote><p><b>BC Practitioner to Practitioner Relationship Extension</b></p><p><b>value</b>: 2000-01-01 --&gt; 2020-01-01</p><p><b>value</b>: <a href=\"Practitioner-Example-AddPractitioner-RelatedPractitioner.html\">Practitioner/Example-AddPractitioner-RelatedPractitioner</a> \"\"</p><p><b>value</b>: LOC <span style=\"background: LightGoldenRodYellow; margin: 4px; border: 1px solid khaki\"> (bc-relationship-type-code#LOC)</span></p></blockquote><p><b>identifier</b>: id: MD20180719V01</p><p><b>active</b>: true</p><p><b>name</b>: SONYA NAME PRSNSECONDGIVENNAMETXT NAME PRSNTHIRDGIVENNAMETXT KELASEY (OFFICIAL)</p><p><b>telecom</b>: ph: 2507654333, <a href=\"mailto:hey@day.com\">hey@day.com</a></p><p><b>address</b>: 19 ST ADDRESS ADDRESSLINE2TXT ADDRESS ADDRESSLINE3TXT VICTORIA BC V6P7B8 CA </p><p><b>gender</b>: female</p><p><b>birthDate</b>: 1951-11-12</p><h3>Qualifications</h3><table class=\"grid\"><tr><td>-</td><td><b>Extension</b></td><td><b>Code</b></td><td><b>Period</b></td><td><b>Issuer</b></td></tr><tr><td>*</td><td></td><td>CREDENTIAL_CREDENTIALDESIGNATIONTXT <span style=\"background: LightGoldenRodYellow; margin: 4px; border: 1px solid khaki\"> (<a href=\"http://terminology.hl7.org/3.1.0/CodeSystem-v3-scpqual.html\">pan-Canadian Provider Qualification Types</a>#BD)</span></td><td>2000-01-01 --&gt; 2020-01-01</td><td><a name=\"qualificationOrganization\"> </a><blockquote><div style=\"display: inline-block; background-color: #d9e0e7; padding: 6px; margin: 4px; border: 1px solid #8da1b4; border-radius: 5px; line-height: 60%\"><p style=\"margin-bottom: 0px\">Resource \"qualificationOrganization\" </p><p style=\"margin-bottom: 0px\">Profile: <a href=\"StructureDefinition-bc-organization.html\">BCOrganization</a></p></div><p><b>name</b>: CREDENTIAL_CREDENTIALGRANTINGINSTTXT</p><p><b>address</b>: CALGARY AB CA </p></blockquote></td></tr></table><p><b>communication</b>: EN <span style=\"background: LightGoldenRodYellow; margin: 4px; border: 1px solid khaki\"> (bc-language-code#EN)</span></p></div>"
        },
        "contained": [
          {
            "resourceType": "Organization",
            "id": "qualificationOrganization",
            "meta": {
              "profile": [
                "http://hl7.org/fhir/ca-bc/provider/StructureDefinition/bc-organization"
              ]
            },
            "name": "CREDENTIAL_CREDENTIALGRANTINGINSTTXT",
            "address": [
              {
                "city": "CALGARY",
                "state": "AB",
                "country": "CA"
              }
            ]
          }
        ],
        "extension": [
          {
            "url": "http://hl7.org/fhir/ca-bc/provider/StructureDefinition/bc-period-extension",
            "valuePeriod": {
              "start": "2000-01-01",
              "end": "2020-01-01"
            }
          },
          {
            "extension": [
              {
                "url": "statusCode",
                "valueCodeableConcept": {
                  "coding": [
                    {
                      "system": "http://terminology.hl7.org/CodeSystem/v3-RoleStatus",
                      "code": "active"
                    }
                  ]
                }
              },
              {
                "url": "statusReasonCode",
                "valueCodeableConcept": {
                  "coding": [
                    {
                      "system": "http://hl7.org/fhir/bc-plr/bc-status-reason-code",
                      "code": "PRAC"
                    }
                  ]
                }
              },
              {
                "url": "statusClassCode",
                "valueCodeableConcept": {
                  "coding": [
                    {
                      "system": "http://hl7.org/fhir/bc-plr/bc-status-class-code",
                      "code": "LIC"
                    }
                  ]
                }
              },
              {
                "extension": [
                  {
                    "url": "custodianId",
                    "valueIdentifier": {
                      "assigner": {
                        "display": "RNA"
                      }
                    }
                  }
                ],
                "url": "http://hl7.org/fhir/ca-bc/provider/StructureDefinition/bc-end-reason-extension"
              },
              {
                "url": "http://hl7.org/fhir/ca-bc/provider/StructureDefinition/bc-period-extension",
                "valuePeriod": {
                  "start": "2000-01-01",
                  "end": "2020-01-01"
                }
              }
            ],
            "url": "http://hl7.org/fhir/ca-bc/provider/StructureDefinition/bc-license-status-extension"
          },
          {
            "extension": [
              {
                "url": "custodianId",
                "valueIdentifier": {
                  "assigner": {
                    "display": "RNA"
                  }
                }
              },
              {
                "url": "endReasonCode",
                "valueCodeableConcept": {
                  "coding": [
                    {
                      "system": "http://hl7.org/fhir/bc-plr/bc-status-reason-code",
                      "code": "PRAC"
                    }
                  ]
                }
              }
            ],
            "url": "http://hl7.org/fhir/ca-bc/provider/StructureDefinition/bc-end-reason-extension"
          },
          {
            "url": "http://hl7.org/fhir/ca-bc/provider/StructureDefinition/bc-practitioner-deathdate-extension",
            "valueDateTime": "2000-02-01"
          },
          {
            "url": "http://hl7.org/fhir/ca-bc/provider/StructureDefinition/bc-birthplace-extension",
            "valueAddress": {
              "state": "AL",
              "country": "US"
            }
          },
          {
            "extension": [
              {
                "url": "identifier",
                "valueIdentifier": {
                  "system": "http://hl7.org/fhir/bc-plr/bc-disciplinary-action-id",
                  "value": "DISCIPLINARY_ACTION_TEST1"
                }
              },
              {
                "url": "description",
                "valueString": "DISCIPLINARYACTION_DESCRIPTIONTXT_1"
              },
              {
                "url": "http://hl7.org/fhir/ca-bc/provider/StructureDefinition/bc-period-extension",
                "valuePeriod": {
                  "start": "1950-11-20T00:00:00-07:00",
                  "end": "2020-01-01"
                }
              },
              {
                "url": "archiveDate",
                "valueDateTime": "2020-01-01"
              },
              {
                "url": "displayFlag",
                "valueBoolean": true
              }
            ],
            "url": "http://hl7.org/fhir/ca-bc/provider/StructureDefinition/bc-practitioner-disciplinary-action-extension"
          },
          {
            "extension": [
              {
                "url": "code",
                "valueCodeableConcept": {
                  "coding": [
                    {
                      "system": "http://terminology.hl7.org/CodeSystem/v3-Confidentiality",
                      "code": "N"
                    }
                  ]
                }
              },
              {
                "url": "http://hl7.org/fhir/ca-bc/provider/StructureDefinition/bc-period-extension",
                "valuePeriod": {
                  "start": "2000-01-01",
                  "end": "2020-01-01"
                }
              }
            ],
            "url": "http://hl7.org/fhir/ca-bc/provider/StructureDefinition/bc-practitioner-confidentiality-extension"
          },
          {
            "extension": [
              {
                "url": "identifier",
                "valueIdentifier": {
                  "system": "http://hl7.org/fhir/bc-plr/bc-note-id",
                  "value": "noteID1"
                }
              },
              {
                "url": "text",
                "valueString": "Note text sample"
              },
              {
                "url": "http://hl7.org/fhir/ca-bc/provider/StructureDefinition/bc-period-extension",
                "valuePeriod": {
                  "start": "2000-01-01",
                  "end": "2020-01-01"
                }
              }
            ],
            "url": "http://hl7.org/fhir/ca-bc/provider/StructureDefinition/bc-note-extension"
          },
          {
            "extension": [
              {
                "url": "identifier",
                "valueIdentifier": {
                  "system": "http://hl7.org/fhir/bc-plr/bc-condition-type-code",
                  "value": "23"
                }
              },
              {
                "url": "http://hl7.org/fhir/ca-bc/provider/StructureDefinition/bc-period-extension",
                "valuePeriod": {
                  "start": "2000-01-01",
                  "end": "2020-01-01"
                }
              },
              {
                "url": "restriction",
                "valueBoolean": true
              },
              {
                "url": "restrictionText",
                "valueString": "CONDITION_RESTRICTION_EXPLANATION TEXT"
              },
              {
                "url": "code",
                "valueCodeableConcept": {
                  "coding": [
                    {
                      "system": "http://hl7.org/fhir/bc-plr/bc-condition-type-code",
                      "code": "LOC"
                    }
                  ]
                }
              }
            ],
            "url": "http://hl7.org/fhir/ca-bc/provider/StructureDefinition/bc-practitioner-condition-extension"
          },
          {
            "extension": [
              {
                "url": "http://hl7.org/fhir/ca-bc/provider/StructureDefinition/bc-period-extension",
                "valuePeriod": {
                  "start": "2000-01-01",
                  "end": "2020-01-01"
                }
              },
              {
                "url": "practitioner",
                "valueReference": {
                  "reference": "Practitioner/Example-AddPractitioner-RelatedPractitioner"
                }
              },
              {
                "url": "http://hl7.org/fhir/ca-bc/provider/StructureDefinition/bc-relationship-type-extension",
                "valueCodeableConcept": {
                  "coding": [
                    {
                      "system": "http://hl7.org/fhir/bc-plr/bc-relationship-type-code",
                      "code": "LOC"
                    }
                  ]
                }
              }
            ],
            "url": "http://hl7.org/fhir/ca-bc/provider/StructureDefinition/bc-practitioner-relationship-extension"
          }
        ],
        "identifier": [
          {
            "system": "urn:oid:2.16.840.1.113883.3.40.2.4",
            "value": "MD20180719V01",
            "period": {
              "start": "2000-01-01",
              "end": "2020-01-01"
            }
          }
        ],
        "active": true,
        "name": [
          {
            "use": "official",
            "family": "KELASEY",
            "given": [
              "SONYA",
              "NAME PRSNSECONDGIVENNAMETXT",
              "NAME PRSNTHIRDGIVENNAMETXT"
            ],
            "prefix": [
              "PRSNPREFIX"
            ],
            "suffix": [
              "PRSNSUFFIX"
            ],
            "period": {
              "start": "2000-01-01",
              "end": "2020-01-01"
            }
          }
        ],
        "telecom": [
          {
            "extension": [
              {
                "url": "http://hl7.org/fhir/ca-bc/provider/StructureDefinition/bc-communication-purpose-code-extension",
                "valueCodeableConcept": {
                  "coding": [
                    {
                      "system": "http://hl7.org/fhir/bc-plr/bc-communication-purpose-code",
                      "code": "HC"
                    }
                  ]
                }
              }
            ],
            "system": "phone",
            "value": "2507654333",
            "period": {
              "start": "2000-01-01",
              "end": "2020-01-01"
            }
          },
          {
            "extension": [
              {
                "url": "http://hl7.org/fhir/ca-bc/provider/StructureDefinition/bc-communication-purpose-code-extension",
                "valueCodeableConcept": {
                  "coding": [
                    {
                      "system": "http://hl7.org/fhir/bc-plr/bc-communication-purpose-code",
                      "code": "BC"
                    }
                  ]
                }
              }
            ],
            "system": "email",
            "value": "hey@day.com",
            "period": {
              "start": "2000-01-01",
              "end": "2020-01-01"
            }
          }
        ],
        "address": [
          {
            "extension": [
              {
                "url": "http://hl7.org/fhir/ca-bc/provider/StructureDefinition/bc-communication-purpose-code-extension",
                "valueCodeableConcept": {
                  "coding": [
                    {
                      "system": "http://hl7.org/fhir/bc-plr/bc-communication-purpose-code",
                      "code": "BC"
                    }
                  ]
                }
              },
              {
                "url": "http://hl7.org/fhir/ca-bc/provider/StructureDefinition/bc-address-validation-status-extension",
                "valueCodeableConcept": {
                  "coding": [
                    {
                      "system": "http://hl7.org/fhir/bc-plr/bc-address-validation-status-code",
                      "code": "V"
                    }
                  ]
                }
              }
            ],
            "type": "postal",
            "line": [
              "19 ST",
              "ADDRESS ADDRESSLINE2TXT",
              "ADDRESS ADDRESSLINE3TXT"
            ],
            "city": "VICTORIA",
            "state": "BC",
            "postalCode": "V6P7B8",
            "country": "CA"
          }
        ],
        "gender": "female",
        "birthDate": "1951-11-12",
        "_birthDate": {
          "extension": [
            {
              "url": "http://hl7.org/fhir/ca-bc/provider/StructureDefinition/bc-birthtime-extension",
              "valueDateTime": "1951-11-12T00:00:01-06:00"
            }
          ]
        },
        "qualification": [
          {
            "extension": [
              {
                "extension": [
                  {
                    "url": "designation",
                    "valueString": "designation"
                  },
                  {
                    "url": "equivalencyFlag",
                    "valueBoolean": true
                  },
                  {
                    "url": "registrationNumber",
                    "valueString": "registration number"
                  },
                  {
                    "url": "issuedDate",
                    "valueDateTime": "2000-01-01"
                  }
                ],
                "url": "http://hl7.org/fhir/ca-bc/provider/StructureDefinition/bc-practitioner-qualification-extension"
              }
            ],
            "code": {
              "coding": [
                {
                  "system": "https://fhir.infoway-inforoute.ca/CodeSystem/scpqual",
                  "code": "BD"
                }
              ],
              "text": "CREDENTIAL_CREDENTIALDESIGNATIONTXT"
            },
            "period": {
              "start": "2000-01-01",
              "end": "2020-01-01"
            },
            "issuer": {
              "reference": "#qualificationOrganization"
            }
          }
        ],
        "communication": [
          {
            "extension": [
              {
                "url": "http://hl7.org/fhir/ca-bc/provider/StructureDefinition/bc-period-extension",
                "valuePeriod": {
                  "start": "2000-01-01"
                }
              },
              {
                "url": "http://hl7.org/fhir/ca-bc/provider/StructureDefinition/bc-specialty-source-extension",
                "valueString": "Language Source"
              }
            ],
            "coding": [
              {
                "system": "http://hl7.org/fhir/bc-plr/bc-language-code",
                "code": "EN"
              }
            ]
          }
        ]
      },
      "request": {
        "method": "POST",
        "url": "http://plr.moh.bc.ca/fhir/Practitioner"
      }
    },
    {
      "fullUrl": "http://plr.moh.bc.ca/fhir/PractitionerRole/12345",
      "resource": {
        "resourceType": "PractitionerRole",
        "id": "Example-AddPractitioner-PractitionerRole",
        "meta": {
          "profile": [
            "http://hl7.org/fhir/ca-bc/provider/StructureDefinition/bc-practitioner-role"
          ]
        },
        "text": {
          "status": "generated",
          "div": "<div xmlns=\"http://www.w3.org/1999/xhtml\"><p><b>Generated Narrative</b></p><div style=\"display: inline-block; background-color: #d9e0e7; padding: 6px; margin: 4px; border: 1px solid #8da1b4; border-radius: 5px; line-height: 60%\"><p style=\"margin-bottom: 0px\">Resource \"Example-AddPractitioner-PractitionerRole\" </p><p style=\"margin-bottom: 0px\">Profile: <a href=\"StructureDefinition-bc-practitioner-role.html\">BCPractitionerRole</a></p></div><p><b>practitioner</b>: <a href=\"#Practitioner_Example-AddPractitioner-Practitioner\">See above (Practitioner/Example-AddPractitioner-Practitioner)</a></p><p><b>organization</b>: <span>: BC</span></p><p><b>code</b>: MD <span style=\"background: LightGoldenRodYellow; margin: 4px; border: 1px solid khaki\"> (<a href=\"http://terminology.hl7.org/3.1.0/CodeSystem-v3-scptype.html\">pan-Canadian Provider Types</a>#MD)</span></p><p><b>specialty</b>: Family practice (qualifier value) <span style=\"background: LightGoldenRodYellow; margin: 4px; border: 1px solid khaki\"> (<a href=\"https://browser.ihtsdotools.org/\">SNOMED CT</a>#419772000</span></p><p><b style=\"color: maroon\">Exception generating Narrative: null</b></p></div>"
        },
        "practitioner": {
          "reference": "Practitioner/Example-AddPractitioner-Practitioner"
        },
        "organization": {
          "display": "BC"
        },
        "code": [
          {
            "coding": [
              {
                "system": "https://fhir.infoway-inforoute.ca/CodeSystem/scptype",
                "code": "MD"
              }
            ]
          }
        ],
        "specialty": [
          {
            "extension": [
              {
                "url": "http://hl7.org/fhir/ca-bc/provider/StructureDefinition/bc-period-extension",
                "valuePeriod": {
                  "start": "2000-01-01",
                  "end": "2020-01-01"
                }
              },
              {
                "extension": [
                  {
                    "url": "endReasonCode",
                    "valueCodeableConcept": {
                      "coding": [
                        {
                          "system": "http://hl7.org/fhir/bc-plr/bc-end-reason-code",
                          "code": "CORR"
                        }
                      ]
                    }
                  },
                  {
                    "url": "custodianId",
                    "valueIdentifier": {
                      "assigner": {
                        "display": "RNA"
                      }
                    }
                  }
                ],
                "url": "http://hl7.org/fhir/ca-bc/provider/StructureDefinition/bc-end-reason-extension"
              },
              {
                "url": "http://hl7.org/fhir/ca-bc/provider/StructureDefinition/bc-specialty-source-extension",
                "valueString": "Source"
              }
            ],
            "coding": [
              {
                "system": "http://snomed.info/sct",
                "code": "419772000"
              }
            ]
          }
        ],
        "location": [
          {
            "extension": [
              {
                "url": "http://hl7.org/fhir/StructureDefinition/organization-period",
                "valuePeriod": {
                  "start": "2000-01-01",
                  "end": "2020-01-01"
                }
              }
            ],
            "reference": "Location/Example-AddPractitioner-WorkLocation"
          }
        ]
      },
      "request": {
        "method": "POST",
        "url": "http://plr.moh.bc.ca/fhir/PractitionerRole"
      }
    }
  ]
}