{
  "resourceType": "Bundle",
  "id": "Example-Query-Response-Bundle-with-Individual-Provider",
  "type": "searchset",
  "timestamp": "2022-02-02T13:23:13.000-08:00",
  "total": 1,
  "link": [
    {
      "relation": "self",
      "url": "https://plr.hlth.gov.bc.ca/plr/fhir/Practitioner/32/$entityQuery"
    }
  ],
  "entry": [
    {
      "fullUrl": "7bf3d69a-482a-472e-9003-2ade5e0ccd11",
      "resource": {
        "resourceType": "OperationOutcome",
        "id": "Example-OperationOutcome-7049",
        "text": {
          "status": "generated",
          "div": "<div xmlns=\"http://www.w3.org/1999/xhtml\"><p><b>Generated Narrative</b></p><div style=\"display: inline-block; background-color: #d9e0e7; padding: 6px; margin: 4px; border: 1px solid #8da1b4; border-radius: 5px; line-height: 60%\"><p style=\"margin-bottom: 0px\">Resource \"Example-OperationOutcome-7049\" </p></div><h3>Issues</h3><table class=\"grid\"><tr><td>-</td><td><b>Severity</b></td><td><b>Code</b></td><td><b>Details</b></td></tr><tr><td>*</td><td></td><td>business-rule</td><td>Some results were removed under data permission rules. <span style=\"background: LightGoldenRodYellow; margin: 4px; border: 1px solid khaki\"> (bc-error-codes#GRS.DPS.UNK.UNK.0.0.7049)</span></td></tr></table></div>"
        },
        "issue": [
          {
            "_severity": {
              "extension": [
                {
                  "url": "http://hl7.org/fhir/StructureDefinition/data-absent-reason",
                  "valueCode": "unsupported"
                }
              ]
            },
            "code": "business-rule",
            "details": {
              "coding": [
                {
                  "system": "http://hl7.org/fhir/bc-plr/bc-error-codes",
                  "code": "GRS.DPS.UNK.UNK.0.0.7049"
                }
              ],
              "text": "Some results were removed under data permission rules."
            }
          }
        ]
      },
      "search": {
        "mode": "outcome"
      }
    },
    {
      "fullUrl": "bbc6d830-d93f-4f9a-b955-b7d7e0ae68a7",
      "resource": {
        "resourceType": "Bundle",
        "id": "Example-Individual-Provider-Bundle",
        "meta": {
          "profile": [
            "http://hl7.org/fhir/ca-bc/provider/StructureDefinition/bc-practitioner-bundle"
          ]
        },
        "type": "transaction",
        "timestamp": "2022-02-02T13:23:13.000-08:00",
        "entry": [
          {
            "fullUrl": "https://plr.hlth.gov.bc.ca/plr/fhir/Practitioner/234234",
            "resource": {
              "resourceType": "Practitioner",
              "id": "Example-Practitioner",
              "meta": {
                "profile": [
                  "http://hl7.org/fhir/ca-bc/provider/StructureDefinition/bc-practitioner"
                ]
              },
              "contained": [
                {
                  "resourceType": "Organization",
                  "id": "grantingInstitution",
                  "meta": {
                    "profile": [
                      "http://hl7.org/fhir/ca-bc/provider/StructureDefinition/bc-organization"
                    ]
                  },
                  "name": "University of Calgary",
                  "address": [
                    {
                      "city": "CALGARY",
                      "state": "AB",
                      "country": "CA"
                    }
                  ]
                }
              ],
              "extension": [
                {
                  "url": "http://hl7.org/fhir/ca-bc/provider/StructureDefinition/bc-period-extension",
                  "valuePeriod": {
                    "start": "2012-12-07"
                  }
                },
                {
                  "url": "http://hl7.org/fhir/ca-bc/provider/StructureDefinition/bc-birthplace-extension",
                  "valueAddress": {
                    "city": "Ottawa",
                    "country": "CA"
                  }
                },
                {
                  "extension": [
                    {
                      "url": "statusCode",
                      "valueCodeableConcept": {
                        "coding": [
                          {
                            "system": "http://terminology.hl7.org/CodeSystem/v3-RoleStatus",
                            "code": "ACTIVE"
                          }
                        ]
                      }
                    },
                    {
                      "url": "period",
                      "valuePeriod": {
                        "start": "2022-02-07",
                        "end": "2023-02-07"
                      }
                    },
                    {
                      "url": "statusReasonCode",
                      "valueCodeableConcept": {
                        "coding": [
                          {
                            "system": "http://hl7.org/fhir/bc-plr/bc-status-reason-code",
                            "code": "GS"
                          }
                        ]
                      }
                    }
                  ],
                  "url": "http://hl7.org/fhir/ca-bc/provider/StructureDefinition/bc-license-status-extension"
                },
                {
                  "extension": [
                    {
                      "url": "identifier",
                      "valueIdentifier": {
                        "value": "DA-1"
                      }
                    },
                    {
                      "url": "description",
                      "valueString": "Description"
                    },
                    {
                      "url": "archiveDate",
                      "valueDateTime": "2000-01-01"
                    },
                    {
                      "url": "http://hl7.org/fhir/ca-bc/provider/StructureDefinition/bc-period-extension",
                      "valuePeriod": {
                        "start": "1998-01-02"
                      }
                    },
                    {
                      "url": "displayFlag",
                      "valueBoolean": false
                    }
                  ],
                  "url": "http://hl7.org/fhir/ca-bc/provider/StructureDefinition/bc-practitioner-disciplinary-action-extension"
                },
                {
                  "extension": [
                    {
                      "url": "identifier",
                      "valueIdentifier": {
                        "value": "Note-2"
                      }
                    },
                    {
                      "url": "text",
                      "valueString": "Note text"
                    },
                    {
                      "url": "http://hl7.org/fhir/ca-bc/provider/StructureDefinition/bc-period-extension",
                      "valuePeriod": {
                        "start": "1998-01-02"
                      }
                    }
                  ],
                  "url": "http://hl7.org/fhir/ca-bc/provider/StructureDefinition/bc-note-extension"
                },
                {
                  "extension": [
                    {
                      "url": "identifier",
                      "valueIdentifier": {
                        "value": "Condition-1"
                      }
                    },
                    {
                      "url": "restriction",
                      "valueBoolean": false
                    },
                    {
                      "url": "restrictionText",
                      "valueString": "Restriction text"
                    },
                    {
                      "url": "code",
                      "valueCodeableConcept": {
                        "coding": [
                          {
                            "system": "http://hl7.org/fhir/bc-plr/bc-condition-type-code",
                            "code": "EXP"
                          }
                        ]
                      }
                    },
                    {
                      "url": "http://hl7.org/fhir/ca-bc/provider/StructureDefinition/bc-period-extension",
                      "valuePeriod": {
                        "start": "1998-01-02"
                      }
                    }
                  ],
                  "url": "http://hl7.org/fhir/ca-bc/provider/StructureDefinition/bc-practitioner-condition-extension"
                }
              ],
              "identifier": [
                {
                  "type": {
                    "coding": [
                      {
                        "code": "IPC"
                      }
                    ]
                  },
                  "system": "http://hl7.org/fhir/bc-plr/bc-identifer-type-code",
                  "value": "IPC.23423234.BC.PRS",
                  "period": {
                    "start": "2022-02-07"
                  }
                },
                {
                  "type": {
                    "coding": [
                      {
                        "code": "CPN"
                      }
                    ]
                  },
                  "system": "http://hl7.org/fhir/bc-plr/bc-identifer-type-code",
                  "value": "CPN.23423234.BC.PRS",
                  "period": {
                    "start": "2022-02-07"
                  }
                },
                {
                  "type": {
                    "coding": [
                      {
                        "code": "CPSID"
                      }
                    ]
                  },
                  "system": "http://hl7.org/fhir/bc-plr/bc-identifer-type-code",
                  "value": "89745",
                  "period": {
                    "start": "2022-02-07"
                  }
                }
              ],
              "name": [
                {
                  "extension": [
                    {
                      "url": "http://hl7.org/fhir/ca-bc/provider/StructureDefinition/bc-name-use-extension",
                      "valueCode": "official"
                    }
                  ],
                  "family": "FamilyName",
                  "given": [
                    "GivenName"
                  ],
                  "period": {
                    "start": "2012-12-07"
                  }
                }
              ],
              "telecom": [
                {
                  "extension": [
                    {
                      "url": "http://hl7.org/fhir/StructureDefinition/contactpoint-area",
                      "valueString": "250"
                    },
                    {
                      "url": "http://hl7.org/fhir/StructureDefinition/contactpoint-local",
                      "valueString": "111-2234"
                    },
                    {
                      "url": "http://hl7.org/fhir/StructureDefinition/contactpoint-extension",
                      "valueString": "3432"
                    }
                  ],
                  "system": "phone",
                  "use": "work",
                  "period": {
                    "start": "2000-02-02"
                  }
                }
              ],
              "address": [
                {
                  "use": "work",
                  "type": "postal",
                  "period": {
                    "start": "2000-02-02"
                  }
                }
              ],
              "gender": "male",
              "birthDate": "1934-01-02",
              "qualification": [
                {
                  "extension": [
                    {
                      "extension": [
                        {
                          "url": "designation",
                          "valueString": "Designation"
                        },
                        {
                          "url": "equivalencyFlag",
                          "valueBoolean": false
                        },
                        {
                          "url": "registrationNumber",
                          "valueString": "Registration No."
                        },
                        {
                          "url": "issuedDate",
                          "valueDateTime": "2000-02-03"
                        }
                      ],
                      "url": "http://hl7.org/fhir/ca-bc/provider/StructureDefinition/bc-practitioner-qualification-extension"
                    }
                  ],
                  "code": {
                    "coding": [
                      {
                        "system": "https://fhir.infoway-inforoute.ca/CodeSystem/scpqual",
                        "code": "BD"
                      }
                    ]
                  },
                  "period": {
                    "start": "2000-01-01"
                  },
                  "issuer": {
                    "reference": "#grantingInstitution"
                  }
                }
              ],
              "communication": [
                {
                  "extension": [
                    {
                      "url": "http://hl7.org/fhir/ca-bc/provider/StructureDefinition/bc-period-extension",
                      "valuePeriod": {
                        "start": "2000-01-01"
                      }
                    },
                    {
                      "url": "http://hl7.org/fhir/ca-bc/provider/StructureDefinition/bc-specialty-source-extension",
                      "valueString": "Language Source"
                    }
                  ],
                  "coding": [
                    {
                      "system": "http://hl7.org/fhir/bc-plr/bc-language-code",
                      "code": "EN"
                    }
                  ]
                }
              ]
            },
            "request": {
              "method": "POST",
              "url": "http://plr.moh.bc.ca/fhir/Practitioner"
            }
          },
          {
            "fullUrl": "https://plr.hlth.gov.bc.ca/plr/fhir/PractitionerRole/234234",
            "resource": {
              "resourceType": "PractitionerRole",
              "id": "Example-PractitionerRole",
              "meta": {
                "profile": [
                  "http://hl7.org/fhir/ca-bc/provider/StructureDefinition/bc-practitioner-role"
                ]
              },
              "practitioner": {
                "reference": "Practitioner/Example-Practitioner"
              },
              "organization": {
                "display": "BC"
              },
              "code": [
                {
                  "coding": [
                    {
                      "system": "https://fhir.infoway-inforoute.ca/CodeSystem/scptype",
                      "code": "MD"
                    }
                  ]
                }
              ],
              "specialty": [
                {
                  "extension": [
                    {
                      "url": "http://hl7.org/fhir/ca-bc/provider/StructureDefinition/bc-period-extension",
                      "valuePeriod": {
                        "start": "2000-01-01",
                        "end": "2020-01-01"
                      }
                    },
                    {
                      "url": "http://hl7.org/fhir/ca-bc/provider/StructureDefinition/bc-specialty-source-extension",
                      "valueString": "Expertise source"
                    }
                  ],
                  "coding": [
                    {
                      "system": "http://snomed.info/sct",
                      "code": "419772000"
                    }
                  ]
                }
              ]
            },
            "request": {
              "method": "POST",
              "url": "http://plr.moh.bc.ca/fhir/PractitionerRole"
            }
          }
        ]
      },
      "search": {
        "mode": "match"
      }
    }
  ]
}