<?xml version="1.0" encoding="UTF-8"?>

<Bundle xmlns="http://hl7.org/fhir">
  <id value="Example-Query-Response-Bundle-with-Individual-Provider"/>
  <type value="searchset"/>
  <timestamp value="2022-02-02T13:23:13.000-08:00"/>
  <total value="1"/>
  <link>
    <relation value="self"/>
    <url value="https://plr.hlth.gov.bc.ca/plr/fhir/Practitioner/32/$entityQuery"/>
  </link>
  <entry>
    <fullUrl value="7bf3d69a-482a-472e-9003-2ade5e0ccd11"/>
    <resource>
      <OperationOutcome>
        <id value="Example-OperationOutcome-7049"/>
        <text>
          <status value="generated"/><div xmlns="http://www.w3.org/1999/xhtml"><p><b>Generated Narrative</b></p><div style="display: inline-block; background-color: #d9e0e7; padding: 6px; margin: 4px; border: 1px solid #8da1b4; border-radius: 5px; line-height: 60%"><p style="margin-bottom: 0px">Resource "Example-OperationOutcome-7049" </p></div><h3>Issues</h3><table class="grid"><tr><td>-</td><td><b>Severity</b></td><td><b>Code</b></td><td><b>Details</b></td></tr><tr><td>*</td><td>warning</td><td>business-rule</td><td>Some results were removed under data permission rules. <span style="background: LightGoldenRodYellow; margin: 4px; border: 1px solid khaki"> (bc-error-codes#GRS.DPS.UNK.UNK.0.0.7049)</span></td></tr></table></div>
        </text>
        <issue>
          <severity value="warning"/>
          <code value="business-rule"/>
          <details>
            <coding>
              <system value="http://hl7.org/fhir/bc-plr/bc-error-codes"/>
              <code value="GRS.DPS.UNK.UNK.0.0.7049"/>
            </coding>
            <text value="Some results were removed under data permission rules."/>
          </details>
        </issue>
      </OperationOutcome>
    </resource>
    <search>
      <mode value="outcome"/>
    </search>
  </entry>
  <entry>
    <fullUrl value="bbc6d830-d93f-4f9a-b955-b7d7e0ae68a7"/>
    <resource>
      <Bundle>
        <id value="Example-Individual-Provider-Bundle"/>
        <meta>
          <profile value="http://hl7.org/fhir/ca-bc/provider/StructureDefinition/bc-practitioner-bundle"/>
        </meta>
        <type value="transaction"/>
        <timestamp value="2022-02-02T13:23:13.000-08:00"/>
        <entry>
          <fullUrl value="https://plr.hlth.gov.bc.ca/plr/fhir/Practitioner/234234"/>
          <resource>
            <Practitioner>
              <id value="Example-Practitioner"/>
              <meta>
                <profile value="http://hl7.org/fhir/ca-bc/provider/StructureDefinition/bc-practitioner"/>
              </meta>
              <contained>
                <Organization>
                  <id value="grantingInstitution"/>
                  <meta>
                    <profile value="http://hl7.org/fhir/ca-bc/provider/StructureDefinition/bc-organization"/>
                  </meta>
                  <name value="University of Calgary"/>
                  <address>
                    <city value="CALGARY"/>
                    <state value="AB"/>
                    <country value="CA"/>
                  </address>
                </Organization>
              </contained>
              <extension url="http://hl7.org/fhir/ca-bc/provider/StructureDefinition/bc-period-extension">
                <valuePeriod>
                  <start value="2012-12-07"/>
                </valuePeriod>
              </extension>
              <extension url="http://hl7.org/fhir/ca-bc/provider/StructureDefinition/bc-birthplace-extension">
                <valueAddress>
                  <city value="Ottawa"/>
                  <country value="CA"/>
                </valueAddress>
              </extension>
              <extension url="http://hl7.org/fhir/ca-bc/provider/StructureDefinition/bc-license-status-extension">
                <extension url="statusCode">
                  <valueCodeableConcept>
                    <coding>
                      <system value="http://terminology.hl7.org/CodeSystem/v3-RoleStatus"/>
                      <code value="ACTIVE"/>
                    </coding>
                  </valueCodeableConcept>
                </extension>
                <extension url="period">
                  <valuePeriod>
                    <start value="2022-02-07"/>
                    <end value="2023-02-07"/>
                  </valuePeriod>
                </extension>
                <extension url="statusReasonCode">
                  <valueCodeableConcept>
                    <coding>
                      <system value="http://hl7.org/fhir/bc-plr/bc-status-reason-code"/>
                      <code value="GS"/>
                    </coding>
                  </valueCodeableConcept>
                </extension>
              </extension>
              <extension url="http://hl7.org/fhir/ca-bc/provider/StructureDefinition/bc-practitioner-disciplinary-action-extension">
                <extension url="identifier">
                  <valueIdentifier>
                    <value value="DA-1"/>
                  </valueIdentifier>
                </extension>
                <extension url="description">
                  <valueString value="Description"/>
                </extension>
                <extension url="archiveDate">
                  <valueDateTime value="2000-01-01"/>
                </extension>
                <extension url="http://hl7.org/fhir/ca-bc/provider/StructureDefinition/bc-period-extension">
                  <valuePeriod>
                    <start value="1998-01-02"/>
                  </valuePeriod>
                </extension>
                <extension url="displayFlag">
                  <valueBoolean value="false"/>
                </extension>
              </extension>
              <extension url="http://hl7.org/fhir/ca-bc/provider/StructureDefinition/bc-note-extension">
                <extension url="identifier">
                  <valueIdentifier>
                    <value value="Note-2"/>
                  </valueIdentifier>
                </extension>
                <extension url="text">
                  <valueString value="Note text"/>
                </extension>
                <extension url="http://hl7.org/fhir/ca-bc/provider/StructureDefinition/bc-period-extension">
                  <valuePeriod>
                    <start value="1998-01-02"/>
                  </valuePeriod>
                </extension>
              </extension>
              <extension url="http://hl7.org/fhir/ca-bc/provider/StructureDefinition/bc-practitioner-condition-extension">
                <extension url="identifier">
                  <valueIdentifier>
                    <value value="Condition-1"/>
                  </valueIdentifier>
                </extension>
                <extension url="restriction">
                  <valueBoolean value="false"/>
                </extension>
                <extension url="restrictionText">
                  <valueString value="Restriction text"/>
                </extension>
                <extension url="code">
                  <valueCodeableConcept>
                    <coding>
                      <system value="http://hl7.org/fhir/bc-plr/bc-condition-type-code"/>
                      <code value="EXP"/>
                    </coding>
                  </valueCodeableConcept>
                </extension>
                <extension url="http://hl7.org/fhir/ca-bc/provider/StructureDefinition/bc-period-extension">
                  <valuePeriod>
                    <start value="1998-01-02"/>
                  </valuePeriod>
                </extension>
              </extension>
              <identifier>
                <system value="urn:oid:2.16.840.1.113883.3.40.2.8"/>
                <value value="23423234"/>
                <period>
                  <start value="2022-02-07"/>
                </period>
              </identifier>
              <identifier>
                <system value="urn:oid:2.16.840.1.113883.3.40.2.3"/>
                <value value="23423234"/>
                <period>
                  <start value="2022-02-07"/>
                </period>
              </identifier>
              <identifier>
                <system value="urn:oid:2.16.840.1.113883.3.40.2.4"/>
                <value value="89745"/>
                <period>
                  <start value="2022-02-07"/>
                </period>
              </identifier>
              <name>
                <extension url="http://hl7.org/fhir/ca-bc/provider/StructureDefinition/bc-name-use-extension">
                  <valueCode value="official"/>
                </extension>
                <family value="FamilyName"/>
                <given value="GivenName"/>
                <period>
                  <start value="2012-12-07"/>
                </period>
              </name>
              <telecom>
                <extension url="http://hl7.org/fhir/StructureDefinition/contactpoint-area">
                  <valueString value="250"/>
                </extension>
                <extension url="http://hl7.org/fhir/StructureDefinition/contactpoint-local">
                  <valueString value="111-2234"/>
                </extension>
                <extension url="http://hl7.org/fhir/StructureDefinition/contactpoint-extension">
                  <valueString value="3432"/>
                </extension>
                <system value="phone"/>
                <use value="work"/>
                <period>
                  <start value="2000-02-02"/>
                </period>
              </telecom>
              <address>
                <use value="work"/>
                <type value="postal"/>
                <period>
                  <start value="2000-02-02"/>
                </period>
              </address>
              <gender value="male"/>
              <birthDate value="1934-01-02"/>
              <qualification>
                <extension url="http://hl7.org/fhir/ca-bc/provider/StructureDefinition/bc-practitioner-qualification-extension">
                  <extension url="designation">
                    <valueString value="Designation"/>
                  </extension>
                  <extension url="equivalencyFlag">
                    <valueBoolean value="false"/>
                  </extension>
                  <extension url="registrationNumber">
                    <valueString value="Registration No."/>
                  </extension>
                  <extension url="issuedDate">
                    <valueDateTime value="2000-02-03"/>
                  </extension>
                </extension>
                <code>
                  <coding>
                    <system value="https://fhir.infoway-inforoute.ca/CodeSystem/scpqual"/>
                    <code value="BD"/>
                  </coding>
                </code>
                <period>
                  <start value="2000-01-01"/>
                </period>
                <issuer>
                  <reference value="#grantingInstitution"/>
                </issuer>
              </qualification>
              <communication>
                <extension url="http://hl7.org/fhir/ca-bc/provider/StructureDefinition/bc-period-extension">
                  <valuePeriod>
                    <start value="2000-01-01"/>
                  </valuePeriod>
                </extension>
                <extension url="http://hl7.org/fhir/ca-bc/provider/StructureDefinition/bc-specialty-source-extension">
                  <valueString value="Language Source"/>
                </extension>
                <coding>
                  <system value="http://hl7.org/fhir/bc-plr/bc-language-code"/>
                  <code value="EN"/>
                </coding>
              </communication>
            </Practitioner>
          </resource>
          <request>
            <method value="POST"/>
            <url value="http://plr.moh.bc.ca/fhir/Practitioner"/>
          </request>
        </entry>
        <entry>
          <fullUrl value="https://plr.hlth.gov.bc.ca/plr/fhir/PractitionerRole/234234"/>
          <resource>
            <PractitionerRole>
              <id value="Example-PractitionerRole"/>
              <meta>
                <profile value="http://hl7.org/fhir/ca-bc/provider/StructureDefinition/bc-practitioner-role"/>
              </meta>
              <practitioner>
                <reference value="Practitioner/Example-Practitioner"/>
              </practitioner>
              <organization>
                <display value="BC"/>
              </organization>
              <code>
                <coding>
                  <system value="https://fhir.infoway-inforoute.ca/CodeSystem/scptype"/>
                  <code value="MD"/>
                </coding>
              </code>
              <specialty>
                <extension url="http://hl7.org/fhir/ca-bc/provider/StructureDefinition/bc-period-extension">
                  <valuePeriod>
                    <start value="2000-01-01"/>
                    <end value="2020-01-01"/>
                  </valuePeriod>
                </extension>
                <extension url="http://hl7.org/fhir/ca-bc/provider/StructureDefinition/bc-specialty-source-extension">
                  <valueString value="Expertise source"/>
                </extension>
                <coding>
                  <system value="http://snomed.info/sct"/>
                  <code value="419772000"/>
                </coding>
              </specialty>
            </PractitionerRole>
          </resource>
          <request>
            <method value="POST"/>
            <url value="http://plr.moh.bc.ca/fhir/PractitionerRole"/>
          </request>
        </entry>
      </Bundle>
    </resource>
    <search>
      <mode value="match"/>
    </search>
  </entry>
</Bundle>