{
  "resourceType": "Parameters",
  "id": "Example-Request-Distribution-Practitioner",
  "parameter": [
    {
      "name": "messageId",
      "valueString": "12344321"
    },
    {
      "name": "messageTime",
      "valueDateTime": "2022-06-27T01:01:01-08:00"
    },
    {
      "name": "distribution",
      "resource": {
        "resourceType": "Bundle",
        "id": "Example-DistributePractitioner-Bundle",
        "meta": {
          "profile": [
            "http://hl7.org/fhir/ca-bc/provider/StructureDefinition/bc-practitioner-bundle"
          ]
        },
        "type": "collection",
        "entry": [
          {
            "fullUrl": "urn:uuid:67b11c73-c2ee-474f-ab64-56b863a1cc87",
            "resource": {
              "resourceType": "Practitioner",
              "id": "Example-Practitioner-Response",
              "meta": {
                "profile": [
                  "http://hl7.org/fhir/ca-bc/provider/StructureDefinition/bc-practitioner"
                ]
              },
              "contained": [
                {
                  "resourceType": "Organization",
                  "id": "grantingInstitution",
                  "meta": {
                    "profile": [
                      "http://hl7.org/fhir/ca-bc/provider/StructureDefinition/bc-organization"
                    ]
                  },
                  "name": "University of Calgary",
                  "address": [
                    {
                      "city": "CALGARY",
                      "state": "AB",
                      "country": "CA"
                    }
                  ]
                }
              ],
              "extension": [
                {
                  "url": "http://hl7.org/fhir/ca-bc/provider/StructureDefinition/bc-period-extension",
                  "valuePeriod": {
                    "start": "2012-12-07"
                  }
                },
                {
                  "extension": [
                    {
                      "url": "custodianId",
                      "valueIdentifier": {
                        "assigner": {
                          "display": "CPS"
                        }
                      }
                    }
                  ],
                  "url": "http://hl7.org/fhir/ca-bc/provider/StructureDefinition/bc-end-reason-extension"
                },
                {
                  "url": "http://hl7.org/fhir/ca-bc/provider/StructureDefinition/bc-birthplace-extension",
                  "valueAddress": {
                    "city": "Ottawa",
                    "country": "CA"
                  }
                },
                {
                  "extension": [
                    {
                      "url": "statusCode",
                      "valueCodeableConcept": {
                        "coding": [
                          {
                            "system": "http://terminology.hl7.org/CodeSystem/v3-RoleStatus",
                            "code": "suspended"
                          }
                        ]
                      }
                    },
                    {
                      "url": "statusReasonCode",
                      "valueCodeableConcept": {
                        "coding": [
                          {
                            "system": "https://plr.hlth.gov.bc.ca/plr/codes/bc-status-reason-code",
                            "code": "LTP"
                          }
                        ]
                      }
                    },
                    {
                      "url": "period",
                      "valuePeriod": {
                        "start": "2022-06-24"
                      }
                    },
                    {
                      "extension": [
                        {
                          "url": "custodianId",
                          "valueIdentifier": {
                            "assigner": {
                              "display": "CPS"
                            }
                          }
                        }
                      ],
                      "url": "http://hl7.org/fhir/ca-bc/provider/StructureDefinition/bc-end-reason-extension"
                    }
                  ],
                  "url": "http://hl7.org/fhir/ca-bc/provider/StructureDefinition/bc-license-status-extension"
                },
                {
                  "extension": [
                    {
                      "url": "identifier",
                      "valueIdentifier": {
                        "value": "DA-1"
                      }
                    },
                    {
                      "url": "description",
                      "valueString": "Description"
                    },
                    {
                      "url": "archiveDate",
                      "valueDateTime": "2000-01-01"
                    },
                    {
                      "url": "http://hl7.org/fhir/ca-bc/provider/StructureDefinition/bc-period-extension",
                      "valuePeriod": {
                        "start": "1998-01-02"
                      }
                    },
                    {
                      "url": "displayFlag",
                      "valueBoolean": false
                    },
                    {
                      "extension": [
                        {
                          "url": "custodianId",
                          "valueIdentifier": {
                            "assigner": {
                              "display": "CPS"
                            }
                          }
                        }
                      ],
                      "url": "http://hl7.org/fhir/ca-bc/provider/StructureDefinition/bc-end-reason-extension"
                    }
                  ],
                  "url": "http://hl7.org/fhir/ca-bc/provider/StructureDefinition/bc-practitioner-disciplinary-action-extension"
                },
                {
                  "extension": [
                    {
                      "url": "identifier",
                      "valueIdentifier": {
                        "system": "https://plr.hlth.gov.bc.ca/plr/identifier-system/bc-note-id",
                        "value": "Note-2"
                      }
                    },
                    {
                      "url": "text",
                      "valueString": "Note text"
                    },
                    {
                      "url": "http://hl7.org/fhir/ca-bc/provider/StructureDefinition/bc-period-extension",
                      "valuePeriod": {
                        "start": "1998-01-02"
                      }
                    },
                    {
                      "extension": [
                        {
                          "url": "custodianId",
                          "valueIdentifier": {
                            "assigner": {
                              "display": "CPS"
                            }
                          }
                        }
                      ],
                      "url": "http://hl7.org/fhir/ca-bc/provider/StructureDefinition/bc-end-reason-extension"
                    }
                  ],
                  "url": "http://hl7.org/fhir/ca-bc/provider/StructureDefinition/bc-note-extension"
                },
                {
                  "extension": [
                    {
                      "url": "identifier",
                      "valueIdentifier": {
                        "system": "https://plr.hlth.gov.bc.ca/plr/identifier-system/bc-condition-id",
                        "value": "Condition-1"
                      }
                    },
                    {
                      "url": "restriction",
                      "valueBoolean": false
                    },
                    {
                      "url": "restrictionText",
                      "valueString": "Restriction text"
                    },
                    {
                      "url": "code",
                      "valueCodeableConcept": {
                        "coding": [
                          {
                            "system": "https://plr.hlth.gov.bc.ca/plr/codes/bc-condition-type-code",
                            "code": "EXP"
                          }
                        ]
                      }
                    },
                    {
                      "url": "http://hl7.org/fhir/ca-bc/provider/StructureDefinition/bc-period-extension",
                      "valuePeriod": {
                        "start": "1998-01-02"
                      }
                    },
                    {
                      "extension": [
                        {
                          "url": "custodianId",
                          "valueIdentifier": {
                            "assigner": {
                              "display": "CPS"
                            }
                          }
                        }
                      ],
                      "url": "http://hl7.org/fhir/ca-bc/provider/StructureDefinition/bc-end-reason-extension"
                    }
                  ],
                  "url": "http://hl7.org/fhir/ca-bc/provider/StructureDefinition/bc-practitioner-condition-extension"
                },
                {
                  "extension": [
                    {
                      "url": "http://hl7.org/fhir/ca-bc/provider/StructureDefinition/bc-period-extension",
                      "valuePeriod": {
                        "start": "2000-01-01",
                        "end": "2020-01-01"
                      }
                    },
                    {
                      "url": "code",
                      "valueCodeableConcept": {
                        "coding": [
                          {
                            "system": "http://terminology.hl7.org/CodeSystem/v3-Confidentiality",
                            "code": "R"
                          }
                        ]
                      }
                    },
                    {
                      "extension": [
                        {
                          "url": "custodianId",
                          "valueIdentifier": {
                            "assigner": {
                              "display": "CPS"
                            }
                          }
                        }
                      ],
                      "url": "http://hl7.org/fhir/ca-bc/provider/StructureDefinition/bc-end-reason-extension"
                    }
                  ],
                  "url": "http://hl7.org/fhir/ca-bc/provider/StructureDefinition/bc-practitioner-confidentiality-extension"
                },
                {
                  "extension": [
                    {
                      "url": "http://hl7.org/fhir/ca-bc/provider/StructureDefinition/bc-period-extension",
                      "valuePeriod": {
                        "start": "2022-06-30"
                      }
                    },
                    {
                      "url": "practitioner",
                      "valueReference": {
                        "identifier": {
                          "system": "https://plr.hlth.gov.bc.ca/plr/identifier-system/IPC",
                          "value": "IPC.00763483.BC.PRS",
                          "period": {
                            "start": "2000-01-01"
                          }
                        }
                      }
                    },
                    {
                      "url": "http://hl7.org/fhir/ca-bc/provider/StructureDefinition/bc-relationship-type-extension",
                      "valueCodeableConcept": {
                        "coding": [
                          {
                            "system": "https://plr.hlth.gov.bc.ca/plr/codes/bc-relationship-type-code",
                            "code": "WORKSAT"
                          }
                        ]
                      }
                    },
                    {
                      "extension": [
                        {
                          "url": "custodianId",
                          "valueIdentifier": {
                            "assigner": {
                              "display": "CPS"
                            }
                          }
                        }
                      ],
                      "url": "http://hl7.org/fhir/ca-bc/provider/StructureDefinition/bc-end-reason-extension"
                    }
                  ],
                  "url": "http://hl7.org/fhir/ca-bc/provider/StructureDefinition/bc-practitioner-relationship-extension"
                }
              ],
              "identifier": [
                {
                  "extension": [
                    {
                      "extension": [
                        {
                          "url": "custodianId",
                          "valueIdentifier": {
                            "assigner": {
                              "display": "MOH"
                            }
                          }
                        }
                      ],
                      "url": "http://hl7.org/fhir/ca-bc/provider/StructureDefinition/bc-end-reason-extension"
                    }
                  ],
                  "system": "https://plr.hlth.gov.bc.ca/plr/identifier-system/IPC",
                  "value": "IPC.00147422.BC.PRS",
                  "period": {
                    "start": "2000-01-01"
                  }
                },
                {
                  "extension": [
                    {
                      "extension": [
                        {
                          "url": "custodianId",
                          "valueIdentifier": {
                            "assigner": {
                              "display": "MOH"
                            }
                          }
                        }
                      ],
                      "url": "http://hl7.org/fhir/ca-bc/provider/StructureDefinition/bc-end-reason-extension"
                    }
                  ],
                  "system": "https://plr.hlth.gov.bc.ca/plr/identifier-system/CPN",
                  "value": "CPN.00147422.BC.PRS",
                  "period": {
                    "start": "2000-01-01"
                  }
                },
                {
                  "extension": [
                    {
                      "extension": [
                        {
                          "url": "custodianId",
                          "valueIdentifier": {
                            "assigner": {
                              "display": "CPS"
                            }
                          }
                        }
                      ],
                      "url": "http://hl7.org/fhir/ca-bc/provider/StructureDefinition/bc-end-reason-extension"
                    }
                  ],
                  "system": "https://plr.hlth.gov.bc.ca/plr/identifier-system/CPSID",
                  "value": "123454",
                  "period": {
                    "start": "2000-01-01"
                  }
                }
              ],
              "name": [
                {
                  "extension": [
                    {
                      "extension": [
                        {
                          "url": "custodianId",
                          "valueIdentifier": {
                            "assigner": {
                              "display": "CPS"
                            }
                          }
                        }
                      ],
                      "url": "http://hl7.org/fhir/ca-bc/provider/StructureDefinition/bc-end-reason-extension"
                    }
                  ],
                  "use": "official",
                  "family": "FamilyName",
                  "given": [
                    "GivenName"
                  ],
                  "period": {
                    "start": "2012-12-07"
                  }
                }
              ],
              "telecom": [
                {
                  "extension": [
                    {
                      "url": "http://hl7.org/fhir/StructureDefinition/contactpoint-area",
                      "valueString": "250"
                    },
                    {
                      "url": "http://hl7.org/fhir/StructureDefinition/contactpoint-country",
                      "valueString": "1"
                    },
                    {
                      "url": "http://hl7.org/fhir/StructureDefinition/contactpoint-local",
                      "valueString": "1112234"
                    },
                    {
                      "url": "http://hl7.org/fhir/StructureDefinition/contactpoint-extension",
                      "valueString": "3432"
                    },
                    {
                      "url": "http://hl7.org/fhir/ca-bc/provider/StructureDefinition/bc-communication-purpose-code-extension",
                      "valueCodeableConcept": {
                        "coding": [
                          {
                            "system": "https://plr.hlth.gov.bc.ca/plr/codes/bc-communication-purpose-code",
                            "code": "BC"
                          }
                        ]
                      }
                    },
                    {
                      "extension": [
                        {
                          "url": "custodianId",
                          "valueIdentifier": {
                            "assigner": {
                              "display": "CPS"
                            }
                          }
                        }
                      ],
                      "url": "http://hl7.org/fhir/ca-bc/provider/StructureDefinition/bc-end-reason-extension"
                    }
                  ],
                  "system": "phone",
                  "period": {
                    "start": "2000-02-02"
                  }
                }
              ],
              "address": [
                {
                  "extension": [
                    {
                      "url": "http://hl7.org/fhir/ca-bc/provider/StructureDefinition/bc-communication-purpose-code-extension",
                      "valueCodeableConcept": {
                        "coding": [
                          {
                            "system": "https://plr.hlth.gov.bc.ca/plr/codes/bc-communication-purpose-code",
                            "code": "BC"
                          }
                        ]
                      }
                    },
                    {
                      "url": "http://hl7.org/fhir/ca-bc/provider/StructureDefinition/bc-address-validation-status-extension",
                      "valueCodeableConcept": {
                        "coding": [
                          {
                            "system": "https://plr.hlth.gov.bc.ca/plr/codes/bc-address-validation-status-code",
                            "code": "V"
                          }
                        ]
                      }
                    },
                    {
                      "extension": [
                        {
                          "url": "custodianId",
                          "valueIdentifier": {
                            "assigner": {
                              "display": "PHSA"
                            }
                          }
                        }
                      ],
                      "url": "http://hl7.org/fhir/ca-bc/provider/StructureDefinition/bc-end-reason-extension"
                    }
                  ],
                  "type": "postal",
                  "line": [
                    "19 ST",
                    "ADDRESS ADDRESSLINE2TXT",
                    "ADDRESS ADDRESSLINE3TXT"
                  ],
                  "city": "VICTORIA",
                  "state": "BC",
                  "postalCode": "V6P7B8",
                  "country": "CA",
                  "period": {
                    "start": "2000-01-01"
                  }
                }
              ],
              "gender": "male",
              "birthDate": "1934-01-02",
              "_birthDate": {
                "extension": [
                  {
                    "url": "http://hl7.org/fhir/ca-bc/provider/StructureDefinition/bc-birthtime-extension",
                    "valueDateTime": "1951-11-12T00:00:01-06:00"
                  }
                ]
              },
              "qualification": [
                {
                  "extension": [
                    {
                      "extension": [
                        {
                          "url": "designation",
                          "valueString": "Designation"
                        },
                        {
                          "url": "equivalencyFlag",
                          "valueBoolean": false
                        },
                        {
                          "url": "registrationNumber",
                          "valueString": "Registration No."
                        },
                        {
                          "url": "issuedDate",
                          "valueDateTime": "2000-02-03"
                        }
                      ],
                      "url": "http://hl7.org/fhir/ca-bc/provider/StructureDefinition/bc-practitioner-qualification-extension"
                    },
                    {
                      "extension": [
                        {
                          "url": "custodianId",
                          "valueIdentifier": {
                            "assigner": {
                              "display": "CPS"
                            }
                          }
                        }
                      ],
                      "url": "http://hl7.org/fhir/ca-bc/provider/StructureDefinition/bc-end-reason-extension"
                    }
                  ],
                  "code": {
                    "coding": [
                      {
                        "system": "https://fhir.infoway-inforoute.ca/CodeSystem/scpqual",
                        "code": "BD"
                      }
                    ]
                  },
                  "period": {
                    "start": "2000-01-01"
                  },
                  "issuer": {
                    "reference": "#grantingInstitution"
                  }
                }
              ],
              "communication": [
                {
                  "extension": [
                    {
                      "url": "http://hl7.org/fhir/ca-bc/provider/StructureDefinition/bc-period-extension",
                      "valuePeriod": {
                        "start": "2000-01-01"
                      }
                    },
                    {
                      "url": "http://hl7.org/fhir/ca-bc/provider/StructureDefinition/bc-specialty-source-extension",
                      "valueString": "Language Source"
                    },
                    {
                      "extension": [
                        {
                          "url": "custodianId",
                          "valueIdentifier": {
                            "assigner": {
                              "display": "CPS"
                            }
                          }
                        }
                      ],
                      "url": "http://hl7.org/fhir/ca-bc/provider/StructureDefinition/bc-end-reason-extension"
                    }
                  ],
                  "coding": [
                    {
                      "system": "https://plr.hlth.gov.bc.ca/plr/codes/bc-language-code",
                      "code": "EN"
                    }
                  ]
                }
              ]
            }
          },
          {
            "fullUrl": "urn:uuid:e46a70b4-d0b9-4770-8ff6-989f4f847dc6",
            "resource": {
              "resourceType": "PractitionerRole",
              "id": "Example-PractitionerRole-1-Role-FromPractitioner-Response",
              "meta": {
                "profile": [
                  "http://hl7.org/fhir/ca-bc/provider/StructureDefinition/bc-practitioner-role"
                ]
              },
              "practitioner": {
                "reference": "urn:uuid:67b11c73-c2ee-474f-ab64-56b863a1cc87"
              },
              "organization": {
                "display": "BC"
              },
              "code": [
                {
                  "coding": [
                    {
                      "system": "https://fhir.infoway-inforoute.ca/CodeSystem/scptype",
                      "code": "MD"
                    }
                  ]
                }
              ],
              "specialty": [
                {
                  "extension": [
                    {
                      "url": "http://hl7.org/fhir/ca-bc/provider/StructureDefinition/bc-period-extension",
                      "valuePeriod": {
                        "start": "2000-01-01",
                        "end": "2020-01-01"
                      }
                    },
                    {
                      "url": "http://hl7.org/fhir/ca-bc/provider/StructureDefinition/bc-specialty-source-extension",
                      "valueString": "Expertise source"
                    }
                  ],
                  "coding": [
                    {
                      "system": "https://fhir.infoway-inforoute.ca/CodeSystem/scpqual",
                      "code": "AMD53"
                    }
                  ]
                }
              ]
            }
          },
          {
            "fullUrl": "urn:uuid:e06c8673-ddf5-4190-ba1e-dd43923a66c7",
            "resource": {
              "resourceType": "PractitionerRole",
              "id": "Example-PractitionerRole-2-OrgRef-FromPractitioner",
              "meta": {
                "profile": [
                  "http://hl7.org/fhir/ca-bc/provider/StructureDefinition/bc-practitioner-role"
                ]
              },
              "period": {
                "start": "2000-01-01"
              },
              "practitioner": {
                "reference": "urn:uuid:67b11c73-c2ee-474f-ab64-56b863a1cc87"
              },
              "organization": {
                "extension": [
                  {
                    "url": "http://hl7.org/fhir/ca-bc/provider/StructureDefinition/bc-relationship-type-extension",
                    "valueCodeableConcept": {
                      "coding": [
                        {
                          "system": "https://plr.hlth.gov.bc.ca/plr/codes/bc-relationship-type-code",
                          "code": "EMPLOYEE"
                        }
                      ]
                    }
                  }
                ],
                "identifier": {
                  "system": "https://plr.hlth.gov.bc.ca/plr/identifier-system/IPC",
                  "value": "IPC.00147433.BC.PRS",
                  "period": {
                    "start": "2000-01-01"
                  }
                }
              }
            }
          },
          {
            "fullUrl": "urn:uuid:529cd77a-8f57-4d2d-bf3d-38dc3c2c4ec9",
            "resource": {
              "resourceType": "PractitionerRole",
              "id": "Example-PractitionerRole-3-LocRef-FromPractitioner",
              "meta": {
                "profile": [
                  "http://hl7.org/fhir/ca-bc/provider/StructureDefinition/bc-practitioner-role"
                ]
              },
              "period": {
                "start": "2000-01-01"
              },
              "practitioner": {
                "reference": "urn:uuid:67b11c73-c2ee-474f-ab64-56b863a1cc87"
              },
              "location": [
                {
                  "extension": [
                    {
                      "url": "http://hl7.org/fhir/ca-bc/provider/StructureDefinition/bc-location-relationship-type-extension",
                      "valueCodeableConcept": {
                        "coding": [
                          {
                            "system": "https://plr.hlth.gov.bc.ca/plr/codes/bc-location-relationship-type-code",
                            "code": "WORKSAT"
                          }
                        ]
                      }
                    }
                  ],
                  "identifier": {
                    "system": "https://plr.hlth.gov.bc.ca/plr/identifier-system/IFC",
                    "value": "IFC.00147422.BC.PRS",
                    "period": {
                      "start": "2000-01-01"
                    }
                  }
                }
              ]
            }
          }
        ]
      }
    }
  ]
}