{
  "resourceType": "Bundle",
  "id": "Example-AddProvider-Bundle",
  "type": "transaction",
  "entry": [
    {
      "fullUrl": "http://plr.moh.bc.ca/fhir/Practitioner/12345",
      "resource": {
        "resourceType": "Practitioner",
        "id": "Example-AddProvider-Practitioner",
        "meta": {
          "profile": [
            "http://hl7.org/fhir/ca-bc/provider/StructureDefinition/bc-practitioner"
          ]
        },
        "text": {
          "status": "extensions",
          "div": "<div xmlns=\"http://www.w3.org/1999/xhtml\"><p><b>Generated Narrative</b></p><blockquote><p><b>BC License Status Extension</b></p><h3>Urls</h3><table class=\"grid\"><tr><td>-</td></tr><tr><td>*</td></tr></table><p><b>value</b>: <span title=\"Codes: {http://terminology.hl7.org/CodeSystem/v3-RoleStatus active}\">active</span></p><h3>Urls</h3><table class=\"grid\"><tr><td>-</td></tr><tr><td>*</td></tr></table><p><b>value</b>: 2000-01-01 --&gt; 2020-01-01</p><h3>Urls</h3><table class=\"grid\"><tr><td>-</td></tr><tr><td>*</td></tr></table><p><b>value</b>: id: 111</p><h3>Urls</h3><table class=\"grid\"><tr><td>-</td></tr><tr><td>*</td></tr></table><p><b>value</b>: <span title=\"Codes: {http://example.org/status_reason_code PRAC}\">PRAC</span></p><h3>Urls</h3><table class=\"grid\"><tr><td>-</td></tr><tr><td>*</td></tr></table><p><b>value</b>: id: RNA</p></blockquote><p><b>BC Practitioner Date of Death Extension</b>: 2000-02-01</p><p><b>BC Birth Place Extension</b>: AL US </p><blockquote><p><b>BC Practitioner Disciplinary Actions</b></p><h3>Urls</h3><table class=\"grid\"><tr><td>-</td></tr><tr><td>*</td></tr></table><p><b>value</b>: id: DISCIPLINARY_ACTION_TEST1</p><h3>Urls</h3><table class=\"grid\"><tr><td>-</td></tr><tr><td>*</td></tr></table><p><b>value</b>: DISCIPLINARYACTION_DESCRIPTIONTXT_1</p><h3>Urls</h3><table class=\"grid\"><tr><td>-</td></tr><tr><td>*</td></tr></table><p><b>value</b>: Nov. 20, 1950, 12:00:00 a.m. --&gt; 2020-01-01</p><h3>Urls</h3><table class=\"grid\"><tr><td>-</td></tr><tr><td>*</td></tr></table><p><b>value</b>: 2020-01-01</p><h3>Urls</h3><table class=\"grid\"><tr><td>-</td></tr><tr><td>*</td></tr></table><p><b>value</b>: true</p></blockquote><blockquote><p><b>BC Practitioner Confidentiality Extension</b></p><h3>Urls</h3><table class=\"grid\"><tr><td>-</td></tr><tr><td>*</td></tr></table><p><b>value</b>: <span title=\"Codes: {http://terminology.hl7.org/CodeSystem/v3-Confidentiality N}\">normal</span></p><h3>Urls</h3><table class=\"grid\"><tr><td>-</td></tr><tr><td>*</td></tr></table><p><b>value</b>: 2000-01-01 --&gt; 2020-01-01</p></blockquote><blockquote><p><b>BC Notes</b></p><h3>Urls</h3><table class=\"grid\"><tr><td>-</td></tr><tr><td>*</td></tr></table><p><b>value</b>: id: noteID1</p><h3>Urls</h3><table class=\"grid\"><tr><td>-</td></tr><tr><td>*</td></tr></table><p><b>value</b>: Note text sample</p><h3>Urls</h3><table class=\"grid\"><tr><td>-</td></tr><tr><td>*</td></tr></table><p><b>value</b>: 2000-01-01 --&gt; 2020-01-01</p></blockquote><blockquote><p><b>BC Practitioner Conditions</b></p><h3>Urls</h3><table class=\"grid\"><tr><td>-</td></tr><tr><td>*</td></tr></table><p><b>value</b>: id: 23</p><h3>Urls</h3><table class=\"grid\"><tr><td>-</td></tr><tr><td>*</td></tr></table><p><b>value</b>: 2000-01-01 --&gt; 2020-01-01</p><h3>Urls</h3><table class=\"grid\"><tr><td>-</td></tr><tr><td>*</td></tr></table><p><b>value</b>: true</p><h3>Urls</h3><table class=\"grid\"><tr><td>-</td></tr><tr><td>*</td></tr></table><p><b>value</b>: CONDITION_RESTRICTION_EXPLANATION TEXT</p><h3>Urls</h3><table class=\"grid\"><tr><td>-</td></tr><tr><td>*</td></tr></table><p><b>value</b>: <span title=\"Codes: {http://example.org/condition_type_code LOC}\">LOC</span></p></blockquote><blockquote><p><b>BC Practitioner to Practitioner Relationship</b></p><h3>Urls</h3><table class=\"grid\"><tr><td>-</td></tr><tr><td>*</td></tr></table><p><b>value</b>: 2000-01-01 --&gt; 2020-01-01</p><h3>Urls</h3><table class=\"grid\"><tr><td>-</td></tr><tr><td>*</td></tr></table><p><b>value</b>: <a href=\"#Practitioner_Example-AddProvider-RelatedPractitioner\">See above (Practitioner/Example-AddProvider-RelatedPractitioner)</a></p><h3>Urls</h3><table class=\"grid\"><tr><td>-</td></tr><tr><td>*</td></tr></table><p><b>value</b>: <span title=\"Codes: {http://example.org/provider_relationship_type_code LOC}\">LOC</span></p></blockquote><p><b>identifier</b>: id: MD20180719V01</p><p><b>active</b>: true</p><p><b>name</b>: SONYA NAME PRSNSECONDGIVENNAMETXT NAME PRSNTHIRDGIVENNAMETXT KELASEY (OFFICIAL)</p><p><b>telecom</b>: ph: 2507654333(HOME), <a href=\"mailto:hey@day.com\">hey@day.com</a></p><p><b>address</b>: 91 RD ADDRESS ADDRESSLINE2TXT ADDRESS ADDRESSLINE3TXT VICTORIA BC V8V8V8 (WORK)</p><p><b>gender</b>: female</p><p><b>birthDate</b>: 1951-11-12</p><h3>Qualifications</h3><table class=\"grid\"><tr><td>-</td><td><b>Extension</b></td><td><b>Identifier</b></td><td><b>Code</b></td><td><b>Period</b></td><td><b>Issuer</b></td></tr><tr><td>*</td><td></td><td>id: CREDENTIAL_REGISTRATIONNUMBERTXT</td><td><span title=\"Codes: {https://fhir.infoway-inforoute.ca/CodeSystem/scpqual BD}\">CREDENTIAL_CREDENTIALDESIGNATIONTXT</span></td><td>2000-01-01 --&gt; 2020-01-01</td><td><a href=\"#Organization_Example-Qualification-Organization\">See above (Organization/Example-Qualification-Organization)</a></td></tr></table></div>"
        },
        "extension": [
          {
            "extension": [
              {
                "url": "statusCode",
                "valueCodeableConcept": {
                  "coding": [
                    {
                      "system": "http://terminology.hl7.org/CodeSystem/v3-RoleStatus",
                      "code": "active"
                    }
                  ]
                }
              },
              {
                "url": "period",
                "valuePeriod": {
                  "start": "2000-01-01",
                  "end": "2020-01-01"
                }
              },
              {
                "url": "eventId",
                "valueIdentifier": {
                  "system": "urn:oid:2.16.840.1.113883.3.40.1.12",
                  "value": "111"
                }
              },
              {
                "url": "statusReasonCode",
                "valueCodeableConcept": {
                  "coding": [
                    {
                      "system": "http://example.org/status_reason_code",
                      "code": "PRAC"
                    }
                  ]
                }
              },
              {
                "url": "custodianId",
                "valueIdentifier": {
                  "system": "urn:oid:2.16.840.1.113883.3.40.1.16",
                  "value": "RNA"
                }
              }
            ],
            "url": "http://hl7.org/fhir/ca-bc/provider/StructureDefinition/bc-license-status-extension"
          },
          {
            "url": "http://hl7.org/fhir/ca-bc/provider/StructureDefinition/bc-practitioner-deathdate-extension",
            "valueDateTime": "2000-02-01"
          },
          {
            "url": "http://hl7.org/fhir/ca-bc/provider/StructureDefinition/bc-birthplace-extension",
            "valueAddress": {
              "state": "AL",
              "country": "US"
            }
          },
          {
            "extension": [
              {
                "url": "identifier",
                "valueIdentifier": {
                  "system": "urn:oid:2.16.840.1.113883.3.40.1.4",
                  "value": "DISCIPLINARY_ACTION_TEST1"
                }
              },
              {
                "url": "description",
                "valueString": "DISCIPLINARYACTION_DESCRIPTIONTXT_1"
              },
              {
                "url": "period",
                "valuePeriod": {
                  "start": "1950-11-20T00:00:00-07:00",
                  "end": "2020-01-01"
                }
              },
              {
                "url": "archiveDate",
                "valueDateTime": "2020-01-01"
              },
              {
                "url": "displayFlag",
                "valueBoolean": true
              }
            ],
            "url": "http://hl7.org/fhir/ca-bc/provider/StructureDefinition/bc-practitioner-disciplinary-action-extension"
          },
          {
            "extension": [
              {
                "url": "code",
                "valueCodeableConcept": {
                  "coding": [
                    {
                      "system": "http://terminology.hl7.org/CodeSystem/v3-Confidentiality",
                      "code": "N"
                    }
                  ]
                }
              },
              {
                "url": "period",
                "valuePeriod": {
                  "start": "2000-01-01",
                  "end": "2020-01-01"
                }
              }
            ],
            "url": "http://hl7.org/fhir/ca-bc/provider/StructureDefinition/bc-practitioner-confidentiality-extension"
          },
          {
            "extension": [
              {
                "url": "identifier",
                "valueIdentifier": {
                  "system": "urn:oid:2.16.840.1.113883.3.40.1.6",
                  "value": "noteID1"
                }
              },
              {
                "url": "text",
                "valueString": "Note text sample"
              },
              {
                "url": "period",
                "valuePeriod": {
                  "start": "2000-01-01",
                  "end": "2020-01-01"
                }
              }
            ],
            "url": "http://hl7.org/fhir/ca-bc/provider/StructureDefinition/bc-note-extension"
          },
          {
            "extension": [
              {
                "url": "identifier",
                "valueIdentifier": {
                  "system": "urn:oid:2.16.840.1.113883.3.40.1.1",
                  "value": "23"
                }
              },
              {
                "url": "period",
                "valuePeriod": {
                  "start": "2000-01-01",
                  "end": "2020-01-01"
                }
              },
              {
                "url": "restriction",
                "valueBoolean": true
              },
              {
                "url": "restrictionText",
                "valueString": "CONDITION_RESTRICTION_EXPLANATION TEXT"
              },
              {
                "url": "code",
                "valueCodeableConcept": {
                  "coding": [
                    {
                      "system": "http://example.org/condition_type_code",
                      "code": "LOC"
                    }
                  ]
                }
              }
            ],
            "url": "http://hl7.org/fhir/ca-bc/provider/StructureDefinition/bc-practitioner-condition-extension"
          },
          {
            "extension": [
              {
                "url": "period",
                "valuePeriod": {
                  "start": "2000-01-01",
                  "end": "2020-01-01"
                }
              },
              {
                "url": "practitioner",
                "valueReference": {
                  "reference": "Practitioner/Example-AddProvider-RelatedPractitioner"
                }
              },
              {
                "url": "type",
                "valueCodeableConcept": {
                  "coding": [
                    {
                      "system": "http://example.org/provider_relationship_type_code",
                      "code": "LOC"
                    }
                  ]
                }
              }
            ],
            "url": "http://hl7.org/fhir/ca-bc/provider/StructureDefinition/bc-practitioner-relationship-extension"
          }
        ],
        "identifier": [
          {
            "system": "urn:oid:2.16.840.1.113883.3.40.2.4",
            "value": "MD20180719V01",
            "period": {
              "start": "2000-01-01",
              "end": "2020-01-01"
            }
          }
        ],
        "active": true,
        "name": [
          {
            "use": "official",
            "family": "KELASEY",
            "given": [
              "SONYA",
              "NAME PRSNSECONDGIVENNAMETXT",
              "NAME PRSNTHIRDGIVENNAMETXT"
            ],
            "prefix": [
              "PRSNPREFIX"
            ],
            "suffix": [
              "PRSNSUFFIX"
            ],
            "period": {
              "start": "2000-01-01",
              "end": "2020-01-01"
            }
          }
        ],
        "telecom": [
          {
            "extension": [
              {
                "url": "http://hl7.org/fhir/ca-bc/provider/StructureDefinition/bc-valid-flag-extension",
                "valueCode": "valid"
              }
            ],
            "system": "phone",
            "value": "2507654333",
            "use": "home",
            "period": {
              "start": "2000-01-01",
              "end": "2020-01-01"
            }
          },
          {
            "system": "email",
            "value": "hey@day.com",
            "use": "work",
            "period": {
              "start": "2000-01-01",
              "end": "2020-01-01"
            }
          }
        ],
        "address": [
          {
            "use": "work",
            "type": "postal",
            "line": [
              "91 RD",
              "ADDRESS ADDRESSLINE2TXT",
              "ADDRESS ADDRESSLINE3TXT"
            ],
            "city": "VICTORIA",
            "state": "BC",
            "postalCode": "V8V8V8",
            "period": {
              "start": "2000-01-01",
              "end": "2020-01-01"
            }
          }
        ],
        "gender": "female",
        "birthDate": "1951-11-12",
        "_birthDate": {
          "extension": [
            {
              "extension": [
                {
                  "url": "birthTime",
                  "valueDateTime": "1951-11-12T00:00:01-06:00"
                },
                {
                  "url": "period",
                  "valuePeriod": {
                    "start": "2000-01-01",
                    "end": "2020-01-01"
                  }
                }
              ],
              "url": "http://hl7.org/fhir/ca-bc/provider/StructureDefinition/bc-birthdate-info-extension"
            }
          ]
        },
        "qualification": [
          {
            "extension": [
              {
                "url": "http://hl7.org/fhir/ca-bc/provider/StructureDefinition/bc-practitioner-qualification-issue-date-extension",
                "valueDateTime": "2001"
              }
            ],
            "identifier": [
              {
                "system": "urn:oid:2.16.840.1.113883.3.40.1.2",
                "value": "CREDENTIAL_REGISTRATIONNUMBERTXT"
              }
            ],
            "code": {
              "coding": [
                {
                  "system": "https://fhir.infoway-inforoute.ca/CodeSystem/scpqual",
                  "code": "BD"
                }
              ],
              "text": "CREDENTIAL_CREDENTIALDESIGNATIONTXT"
            },
            "period": {
              "start": "2000-01-01",
              "end": "2020-01-01"
            },
            "issuer": {
              "reference": "Organization/Example-Qualification-Organization"
            }
          }
        ]
      },
      "request": {
        "method": "POST",
        "url": "http://plr.moh.bc.ca/fhir/Practitioner"
      }
    },
    {
      "fullUrl": "http://plr.moh.bc.ca/fhir/PractitionerRole/12345",
      "resource": {
        "resourceType": "PractitionerRole",
        "id": "Example-AddProvider-PractitionerRole",
        "meta": {
          "profile": [
            "http://hl7.org/fhir/ca-bc/provider/StructureDefinition/bc-practitioner-role"
          ]
        },
        "text": {
          "status": "generated",
          "div": "<div xmlns=\"http://www.w3.org/1999/xhtml\"><p><b>Generated Narrative</b></p><p><b>practitioner</b>: <a href=\"#Practitioner_Example-AddProvider-Practitioner\">See above (Practitioner/Example-AddProvider-Practitioner)</a></p><p><b>organization</b>: <span>BC</span></p><p><b>code</b>: <span title=\"Codes: {https://fhir.infoway-inforoute.ca/CodeSystem/scptype MD}\">MD</span></p><p><b>specialty</b>: <span title=\"Codes: {http://snomed.info/sct 419772000}\">Family practice (qualifier value)</span></p><p><b>location</b>: <a href=\"#Location_Example-AddProvider-WorkLocation\">See above (Location/Example-AddProvider-WorkLocation)</a></p></div>"
        },
        "practitioner": {
          "reference": "Practitioner/Example-AddProvider-Practitioner"
        },
        "organization": {
          "display": "BC"
        },
        "code": [
          {
            "coding": [
              {
                "system": "https://fhir.infoway-inforoute.ca/CodeSystem/scptype",
                "code": "MD"
              }
            ]
          }
        ],
        "specialty": [
          {
            "extension": [
              {
                "url": "http://hl7.org/fhir/ca-bc/provider/StructureDefinition/bc-period-extension",
                "valuePeriod": {
                  "start": "2000-01-01",
                  "end": "2020-01-01"
                }
              },
              {
                "extension": [
                  {
                    "url": "statusCode",
                    "valueCodeableConcept": {
                      "coding": [
                        {
                          "system": "http://terminology.hl7.org/CodeSystem/v3-RoleStatus",
                          "code": "active"
                        }
                      ]
                    }
                  },
                  {
                    "url": "period",
                    "valuePeriod": {
                      "start": "2000-01-01"
                    }
                  },
                  {
                    "url": "eventId",
                    "valueIdentifier": {
                      "system": "http://example.org/event-ids",
                      "value": "123456679"
                    }
                  },
                  {
                    "url": "statusReasonCode",
                    "valueCodeableConcept": {
                      "coding": [
                        {
                          "system": "http://example.org/status_reason_code",
                          "code": "PRAC"
                        }
                      ]
                    }
                  },
                  {
                    "url": "custodianId",
                    "valueIdentifier": {
                      "system": "http://example.org/custodian-ids",
                      "value": "123456679"
                    }
                  }
                ],
                "url": "http://hl7.org/fhir/ca-bc/provider/StructureDefinition/bc-status-extension"
              }
            ],
            "coding": [
              {
                "system": "http://snomed.info/sct",
                "code": "419772000"
              }
            ]
          }
        ],
        "location": [
          {
            "extension": [
              {
                "url": "http://hl7.org/fhir/ca-bc/provider/StructureDefinition/bc-period-extension",
                "valuePeriod": {
                  "start": "2000-01-01",
                  "end": "2020-01-01"
                }
              }
            ],
            "reference": "Location/Example-AddProvider-WorkLocation"
          }
        ]
      },
      "request": {
        "method": "POST",
        "url": "http://plr.moh.bc.ca/fhir/PractitionerRole"
      }
    },
    {
      "fullUrl": "http://plr.moh.bc.ca/fhir/Practitioner/23456",
      "resource": {
        "resourceType": "Practitioner",
        "id": "Example-AddProvider-RelatedPractitioner",
        "meta": {
          "profile": [
            "http://hl7.org/fhir/ca-bc/provider/StructureDefinition/bc-practitioner"
          ]
        },
        "text": {
          "status": "generated",
          "div": "<div xmlns=\"http://www.w3.org/1999/xhtml\"><p><b>Generated Narrative</b></p><p><b>identifier</b>: id: 3DEGDIDERCHIDMAY22T02</p><p><b>name</b>: 23</p></div>"
        },
        "identifier": [
          {
            "system": "urn:oid:2.16.840.1.113883.3.40.20.19",
            "value": "3DEGDIDERCHIDMAY22T02"
          }
        ],
        "name": [
          {
            "text": "23"
          }
        ]
      },
      "request": {
        "method": "POST",
        "url": "http://plr.moh.bc.ca/fhir/Practitioner"
      }
    },
    {
      "fullUrl": "http://plr.moh.bc.ca/fhir/Organization/12345",
      "resource": {
        "resourceType": "Organization",
        "id": "Example-Qualification-Organization",
        "meta": {
          "profile": [
            "http://hl7.org/fhir/ca-bc/provider/StructureDefinition/bc-organization"
          ]
        },
        "text": {
          "status": "generated",
          "div": "<div xmlns=\"http://www.w3.org/1999/xhtml\"><p><b>Generated Narrative</b></p><p><b>name</b>: CREDENTIAL_CREDENTIALGRANTINGINSTTXT</p><p><b>address</b>: CALGARY AB CA </p></div>"
        },
        "name": "CREDENTIAL_CREDENTIALGRANTINGINSTTXT",
        "address": [
          {
            "city": "CALGARY",
            "state": "AB",
            "country": "CA"
          }
        ]
      },
      "request": {
        "method": "POST",
        "url": "http://plr.moh.bc.ca/fhir/Organization"
      }
    },
    {
      "fullUrl": "http://plr.moh.bc.ca/fhir/Location/12345",
      "resource": {
        "resourceType": "Location",
        "id": "Example-AddProvider-WorkLocation",
        "meta": {
          "profile": [
            "http://hl7.org/fhir/ca-bc/provider/StructureDefinition/bc-location"
          ]
        },
        "text": {
          "status": "extensions",
          "div": "<div xmlns=\"http://www.w3.org/1999/xhtml\"><p><b>Generated Narrative</b></p><blockquote><p><b>BC Facility Details Extension</b></p><h3>Urls</h3><table class=\"grid\"><tr><td>-</td></tr><tr><td>*</td></tr></table><p><b>value</b>: OPERATOR NAME</p></blockquote><p><b>BC Facility Community Health Service Area</b>: <span title=\"Codes: {http://example.org/CodeSystem/HealthServiceAreas MAINLAND}\">MAINLAND</span></p><p><b>BC Facility Mailing Address</b>: 19 ST ADDRESS ADDRESSLINE2TXT ADDRESS ADDRESSLINE3TXT VICTORIA BC V6P7B8 CA </p><p><b>identifier</b>: id: 1</p><p><b>name</b>: WORKLOCATIONDETAILS_WORKLOCATION NAME SAMPLE TEXT</p><p><b>type</b>: <span title=\"Codes: {http://terminology.hl7.org/CodeSystem/v3-RoleCode HD}\">Hemodialysis unit</span></p><p><b>telecom</b>: <a href=\"mailto:joe@gmail.com\">joe@gmail.com</a>, ph: 2509876555(HOME)</p><p><b>address</b>: 19 ST ADDRESS ADDRESSLINE2TXT ADDRESS ADDRESSLINE3TXT VICTORIA BC V6P7B8 CA (WORK)</p></div>"
        },
        "extension": [
          {
            "extension": [
              {
                "url": "ownerName",
                "valueString": "OPERATOR NAME"
              }
            ],
            "url": "http://hl7.org/fhir/ca-bc/provider/StructureDefinition/bc-facility-details-extension"
          },
          {
            "url": "http://hl7.org/fhir/ca-bc/provider/StructureDefinition/bc-facility-commmunity-health-service-area-extension",
            "valueCodeableConcept": {
              "coding": [
                {
                  "system": "http://example.org/CodeSystem/HealthServiceAreas",
                  "code": "MAINLAND"
                }
              ]
            }
          },
          {
            "url": "http://hl7.org/fhir/ca-bc/provider/StructureDefinition/bc-facility-mailing-address",
            "valueAddress": {
              "type": "postal",
              "line": [
                "19 ST",
                "ADDRESS ADDRESSLINE2TXT",
                "ADDRESS ADDRESSLINE3TXT"
              ],
              "city": "VICTORIA",
              "state": "BC",
              "postalCode": "V6P7B8",
              "country": "CA"
            }
          }
        ],
        "identifier": [
          {
            "system": "urn:oid:2.16.840.1.113883.3.40.1.10",
            "value": "1"
          }
        ],
        "name": "WORKLOCATIONDETAILS_WORKLOCATION NAME SAMPLE TEXT",
        "type": [
          {
            "coding": [
              {
                "system": "http://terminology.hl7.org/CodeSystem/v3-RoleCode",
                "code": "HD"
              }
            ]
          }
        ],
        "telecom": [
          {
            "system": "email",
            "value": "joe@gmail.com",
            "use": "work",
            "period": {
              "start": "2000-01-01",
              "end": "2020-01-01"
            }
          },
          {
            "system": "phone",
            "value": "2509876555",
            "use": "home",
            "period": {
              "start": "2000-01-01",
              "end": "2020-01-01"
            }
          }
        ],
        "address": {
          "use": "work",
          "type": "postal",
          "line": [
            "19 ST",
            "ADDRESS ADDRESSLINE2TXT",
            "ADDRESS ADDRESSLINE3TXT"
          ],
          "city": "VICTORIA",
          "state": "BC",
          "postalCode": "V6P7B8",
          "country": "CA",
          "period": {
            "start": "2000-01-01",
            "end": "2020-01-01"
          }
        }
      },
      "request": {
        "method": "POST",
        "url": "http://plr.moh.bc.ca/fhir/Location"
      }
    }
  ]
}