<?xml version="1.0" encoding="UTF-8"?>

<Bundle xmlns="http://hl7.org/fhir">
  <id value="Example-AddOrganization-Bundle"/>
  <type value="transaction"/>
  <entry>
    <fullUrl value="http://plr.moh.bc.ca/fhir/Organization/12345"/>
    <resource>
      <Organization>
        <id value="Example-AddOrganization-Organization"/>
        <meta>
          <profile value="http://hl7.org/fhir/ca-bc/provider/StructureDefinition/bc-organization"/>
        </meta>
        <text>
          <status value="extensions"/><div xmlns="http://www.w3.org/1999/xhtml"><p><b>Generated Narrative</b></p><blockquote><p><b>BC License Status Extension</b></p><h3>Urls</h3><table class="grid"><tr><td>-</td></tr><tr><td>*</td></tr></table><p><b>value</b>: <span title="Codes: {http://terminology.hl7.org/CodeSystem/v3-RoleStatus normal}">normal</span></p><h3>Urls</h3><table class="grid"><tr><td>-</td></tr><tr><td>*</td></tr></table><p><b>value</b>: Jan. 31, 2014, 12:00:00 a.m. --&gt; Jan. 31, 2030, 12:00:00 a.m.</p><h3>Urls</h3><table class="grid"><tr><td>-</td></tr><tr><td>*</td></tr></table><p><b>value</b>: id: status1</p><h3>Urls</h3><table class="grid"><tr><td>-</td></tr><tr><td>*</td></tr></table><p><b>value</b>: <span title="Codes: {http://example.org/status_reason_code PRAC}">PRAC</span></p></blockquote><p><b>identifier</b>: id: CPN.00147422.BC.PRS, id: IPC.00147422.BC.PRS, id: 1000095892</p><p><b>active</b>: true</p><p><b>name</b>: Kelowna Clinic</p><p><b>telecom</b>: ph: 7786428585(WORK)</p><p><b>address</b>: 2541 Townsend Rd Sooke BC V4R8T8 CA (WORK)</p></div>
        </text>
        <extension url="http://hl7.org/fhir/ca-bc/provider/StructureDefinition/bc-license-status-extension">
          <extension url="statusCode">
            <valueCodeableConcept>
              <coding>
                <system value="http://terminology.hl7.org/CodeSystem/v3-RoleStatus"/>
                <code value="normal"/>
              </coding>
            </valueCodeableConcept>
          </extension>
          <extension url="period">
            <valuePeriod>
              <start value="2014-01-31T00:00:00-07:00"/>
              <end value="2030-01-31T00:00:00-07:00"/>
            </valuePeriod>
          </extension>
          <extension url="eventId">
            <valueIdentifier>
              <system value="urn:oid:2.16.840.1.113883.3.40.1.12"/>
              <value value="status1"/>
            </valueIdentifier>
          </extension>
          <extension url="statusReasonCode">
            <valueCodeableConcept>
              <coding>
                <system value="http://example.org/status_reason_code"/>
                <code value="PRAC"/>
              </coding>
            </valueCodeableConcept>
          </extension>
        </extension>
        <identifier>
          <system value="urn:oid:2.16.840.1.113883.3.40.2.3"/>
          <value value="CPN.00147422.BC.PRS"/>
        </identifier>
        <identifier>
          <system value="urn:oid:2.16.840.1.113883.3.40.2.8"/>
          <value value="IPC.00147422.BC.PRS"/>
        </identifier>
        <identifier>
          <system value="urn:oid:2.16.840.1.113883.3.40.2.23"/>
          <value value="1000095892"/>
        </identifier>
        <active value="true"/>
        <name value="Kelowna Clinic">
          <extension url="http://hl7.org/fhir/ca-bc/provider/StructureDefinition/bc-name-use-extension">
            <valueCode value="official"/>
          </extension>
          <extension url="http://hl7.org/fhir/ca-bc/provider/StructureDefinition/bc-period-extension">
            <valuePeriod>
              <start value="2014-01-31T00:00:00-07:00"/>
            </valuePeriod>
          </extension>
        </name>
        <telecom>
          <system value="phone"/>
          <value value="7786428585"/>
          <use value="work"/>
          <period>
            <start value="2014-01-31T00:00:00-07:00"/>
          </period>
        </telecom>
        <address>
          <use value="work"/>
          <type value="postal"/>
          <line value="2541 Townsend Rd"/>
          <city value="Sooke"/>
          <state value="BC"/>
          <postalCode value="V4R8T8"/>
          <country value="CA"/>
          <period>
            <start value="2014-01-31T00:00:00-07:00"/>
          </period>
        </address>
      </Organization>
    </resource>
    <request>
      <method value="POST"/>
      <url value="http://plr.moh.bc.ca/fhir/Organization"/>
    </request>
  </entry>
  <entry>
    <fullUrl value="http://plr.moh.bc.ca/fhir/OrganizationAffiliation/12345"/>
    <resource>
      <OrganizationAffiliation>
        <id value="Example-AddOrganization-OrganizationAffiliation"/>
        <meta>
          <profile value="http://hl7.org/fhir/ca-bc/provider/StructureDefinition/bc-organizationaffiliation"/>
        </meta>
        <text>
          <status value="generated"/><div xmlns="http://www.w3.org/1999/xhtml"><p><b>Generated Narrative</b></p><p><b>active</b>: true</p><p><b>period</b>: Apr. 4, 1989, 1:00:00 a.m. --&gt; (ongoing)</p><p><b>organization</b>: <a href="#Organization_Example-AddOrganization-Organization">See above (Organization/Example-AddOrganization-Organization)</a></p><p><b>location</b>: <a href="#Location_Example-AddOrganization-Location">See above (Location/Example-AddOrganization-Location)</a></p></div>
        </text>
        <active value="true"/>
        <period>
          <start value="1989-04-04T00:00:00-07:00"/>
        </period>
        <organization>
          <reference value="Organization/Example-AddOrganization-Organization"/>
        </organization>
        <location>
          <reference value="Location/Example-AddOrganization-Location"/>
        </location>
      </OrganizationAffiliation>
    </resource>
    <request>
      <method value="POST"/>
      <url value="http://plr.moh.bc.ca/fhir/OrganizationAffiliation"/>
    </request>
  </entry>
  <entry>
    <fullUrl value="http://plr.moh.bc.ca/fhir/Location/12345"/>
    <resource>
      <Location>
        <id value="Example-AddOrganization-Location"/>
        <meta>
          <profile value="http://hl7.org/fhir/ca-bc/provider/StructureDefinition/bc-location"/>
        </meta>
        <text>
          <status value="generated"/><div xmlns="http://www.w3.org/1999/xhtml"><p><b>Generated Narrative</b></p><p><b>identifier</b>: id: 111</p><p><b>name</b>: General Hospital</p><p><b>type</b>: <span title="Codes: {http://terminology.hl7.org/CodeSystem/v3-RoleCode HOSP}">Hospital</span></p><p><b>telecom</b>: fax: 55555555551(WORK), fax: 55555555555(HOME), <a href="ftp://someftp.com">ftp://someftp.com</a></p><p><b>address</b>: wl line 11 wl line 22 wl line 33 wl city 2 BC V8V 8V8 CA (WORK)</p></div>
        </text>
        <identifier>
          <system value="urn:oid:2.16.840.1.113883.3.40.1.10"/>
          <value value="111"/>
        </identifier>
        <name value="General Hospital"/>
        <type>
          <coding>
            <system value="http://terminology.hl7.org/CodeSystem/v3-RoleCode"/>
            <code value="HOSP"/>
          </coding>
        </type>
        <telecom>
          <system value="fax"/>
          <value value="55555555551"/>
          <use value="work"/>
          <period>
            <start value="1982-03-04T00:00:00-07:00"/>
          </period>
        </telecom>
        <telecom>
          <system value="fax"/>
          <value value="55555555555"/>
          <use value="home"/>
          <period>
            <start value="1981-04-04T00:00:00-07:00"/>
          </period>
        </telecom>
        <telecom>
          <system value="url"/>
          <value value="ftp://someftp.com"/>
          <use value="mobile"/>
          <period>
            <start value="1991-01-01T00:00:00-07:00"/>
          </period>
        </telecom>
        <address>
          <use value="work"/>
          <type value="postal"/>
          <line value="wl line 11"/>
          <line value="wl line 22"/>
          <line value="wl line 33"/>
          <city value="wl city 2"/>
          <state value="BC"/>
          <postalCode value="V8V 8V8"/>
          <country value="CA"/>
          <period>
            <start value="1988-10-10T00:00:00-07:00"/>
          </period>
        </address>
      </Location>
    </resource>
    <request>
      <method value="POST"/>
      <url value="http://plr.moh.bc.ca/fhir/Location"/>
    </request>
  </entry>
</Bundle>