{
  "resourceType": "Bundle",
  "id": "Example-AddOrganization-Bundle",
  "type": "transaction",
  "entry": [
    {
      "fullUrl": "http://plr.moh.bc.ca/fhir/Organization/12345",
      "resource": {
        "resourceType": "Organization",
        "id": "Example-AddOrganization-Organization",
        "meta": {
          "profile": [
            "http://hl7.org/fhir/ca-bc/provider/StructureDefinition/bc-organization"
          ]
        },
        "text": {
          "status": "generated",
          "div": "<div xmlns=\"http://www.w3.org/1999/xhtml\"><p><b>Generated Narrative</b></p><p><b>identifier</b>: id: CPN.00147422.BC.PRS, id: IPC.00147422.BC.PRS, id: 1000095892</p><p><b>active</b>: true</p><p><b>name</b>: Kelowna Clinic</p><p><b>telecom</b>: ph: 7786428585(WORK)</p><p><b>address</b>: 2541 Townsend Rd Sooke BC V4R8T8 CA (WORK)</p></div>"
        },
        "identifier": [
          {
            "system": "urn:oid:2.16.840.1.113883.3.40.2.3",
            "value": "CPN.00147422.BC.PRS"
          },
          {
            "system": "urn:oid:2.16.840.1.113883.3.40.2.8",
            "value": "IPC.00147422.BC.PRS"
          },
          {
            "system": "urn:oid:2.16.840.1.113883.3.40.2.23",
            "value": "1000095892"
          }
        ],
        "active": true,
        "name": "Kelowna Clinic",
        "_name": {
          "extension": [
            {
              "url": "http://hl7.org/fhir/ca-bc/provider/StructureDefinition/bc-name-use-extension",
              "valueCode": "official"
            },
            {
              "url": "http://hl7.org/fhir/ca-bc/provider/StructureDefinition/bc-period-extension",
              "valuePeriod": {
                "start": "2014-01-31T00:00:00-07:00"
              }
            }
          ]
        },
        "telecom": [
          {
            "system": "phone",
            "value": "7786428585",
            "use": "work",
            "period": {
              "start": "2014-01-31T00:00:00-07:00"
            }
          }
        ],
        "address": [
          {
            "use": "work",
            "type": "postal",
            "line": [
              "2541 Townsend Rd"
            ],
            "city": "Sooke",
            "state": "BC",
            "postalCode": "V4R8T8",
            "country": "CA",
            "period": {
              "start": "2014-01-31T00:00:00-07:00"
            }
          }
        ]
      },
      "request": {
        "method": "POST",
        "url": "http://plr.moh.bc.ca/fhir/Organization"
      }
    },
    {
      "fullUrl": "http://plr.moh.bc.ca/fhir/OrganizationAffiliation/12345",
      "resource": {
        "resourceType": "OrganizationAffiliation",
        "id": "Example-AddOrganization-OrganizationAffiliation",
        "meta": {
          "profile": [
            "http://hl7.org/fhir/ca-bc/provider/StructureDefinition/bc-organizationaffiliation"
          ]
        },
        "text": {
          "status": "generated",
          "div": "<div xmlns=\"http://www.w3.org/1999/xhtml\"><p><b>Generated Narrative</b></p><p><b>active</b>: true</p><p><b>period</b>: Apr. 4, 1989, 1:00:00 a.m. --&gt; (ongoing)</p><p><b>organization</b>: <a href=\"#Organization_Example-AddOrganization-Organization\">See above (Organization/Example-AddOrganization-Organization)</a></p><p><b>location</b>: <a href=\"#Location_Example-AddOrganization-Location\">See above (Location/Example-AddOrganization-Location)</a></p></div>"
        },
        "active": true,
        "period": {
          "start": "1989-04-04T00:00:00-07:00"
        },
        "organization": {
          "reference": "Organization/Example-AddOrganization-Organization"
        },
        "location": [
          {
            "reference": "Location/Example-AddOrganization-Location"
          }
        ]
      },
      "request": {
        "method": "POST",
        "url": "http://plr.moh.bc.ca/fhir/OrganizationAffiliation"
      }
    },
    {
      "fullUrl": "http://plr.moh.bc.ca/fhir/Location/12345",
      "resource": {
        "resourceType": "Location",
        "id": "Example-AddOrganization-Location",
        "meta": {
          "profile": [
            "http://hl7.org/fhir/ca-bc/provider/StructureDefinition/bc-location"
          ]
        },
        "text": {
          "status": "generated",
          "div": "<div xmlns=\"http://www.w3.org/1999/xhtml\"><p><b>Generated Narrative</b></p><p><b>identifier</b>: id: 111</p><p><b>name</b>: General Hospital</p><p><b>type</b>: <span title=\"Codes: {http://terminology.hl7.org/CodeSystem/v3-RoleCode HOSP}\">Hospital</span></p><p><b>telecom</b>: fax: 55555555551(WORK), fax: 55555555555(HOME), <a href=\"ftp://someftp.com\">ftp://someftp.com</a></p><p><b>address</b>: wl line 11 wl line 22 wl line 33 wl city 2 BC V8V 8V8 CA (WORK)</p></div>"
        },
        "identifier": [
          {
            "system": "urn:oid:2.16.840.1.113883.3.40.1.10",
            "value": "111"
          }
        ],
        "name": "General Hospital",
        "_name": {
          "extension": [
            {
              "url": "http://hl7.org/fhir/ca-bc/provider/StructureDefinition/bc-period-extension",
              "valuePeriod": {
                "start": "2000-01-01"
              }
            }
          ]
        },
        "type": [
          {
            "coding": [
              {
                "system": "http://terminology.hl7.org/CodeSystem/v3-RoleCode",
                "code": "HOSP"
              }
            ]
          }
        ],
        "telecom": [
          {
            "system": "fax",
            "value": "55555555551",
            "use": "work",
            "period": {
              "start": "1982-03-04T00:00:00-07:00"
            }
          },
          {
            "system": "fax",
            "value": "55555555555",
            "use": "home",
            "period": {
              "start": "1981-04-04T00:00:00-07:00"
            }
          },
          {
            "system": "url",
            "value": "ftp://someftp.com",
            "use": "mobile",
            "period": {
              "start": "1991-01-01T00:00:00-07:00"
            }
          }
        ],
        "address": {
          "use": "work",
          "type": "postal",
          "line": [
            "wl line 11",
            "wl line 22",
            "wl line 33"
          ],
          "city": "wl city 2",
          "state": "BC",
          "postalCode": "V8V 8V8",
          "country": "CA",
          "period": {
            "start": "1988-10-10T00:00:00-07:00"
          }
        }
      },
      "request": {
        "method": "POST",
        "url": "http://plr.moh.bc.ca/fhir/Location"
      }
    }
  ]
}