<?xml version="1.0" encoding="UTF-8"?>

<Bundle xmlns="http://hl7.org/fhir">
  <id value="Example-AddPractitioner-Bundle"/>
  <meta>
    <profile value="http://hl7.org/fhir/ca-bc/provider/StructureDefinition/bc-practitioner-bundle"/>
  </meta>
  <type value="transaction"/>
  <entry>
    <fullUrl value="http://plr.moh.bc.ca/fhir/Practitioner/12345"/>
    <resource>
      <Practitioner>
        <id value="Example-AddPractitioner-Practitioner"/>
        <meta>
          <profile value="http://hl7.org/fhir/ca-bc/provider/StructureDefinition/bc-practitioner"/>
        </meta>
        <text>
          <status value="extensions"/><div xmlns="http://www.w3.org/1999/xhtml"><p><b>Generated Narrative</b></p><p><b>BC Valid Period</b>: 2000-01-01 --&gt; 2020-01-01</p><blockquote><p><b>BC License Status Extension</b></p><h3>Urls</h3><table class="grid"><tr><td>-</td></tr><tr><td>*</td></tr></table><p><b>value</b>: <span title="Codes: {http://terminology.hl7.org/CodeSystem/v3-RoleStatus active}">active</span></p><h3>Urls</h3><table class="grid"><tr><td>-</td></tr><tr><td>*</td></tr></table><p><b>value</b>: 2000-01-01 --&gt; 2020-01-01</p><h3>Urls</h3><table class="grid"><tr><td>-</td></tr><tr><td>*</td></tr></table><p><b>value</b>: <span title="Codes: {http://example.org/status_reason_code PRAC}">PRAC</span></p><h3>Urls</h3><table class="grid"><tr><td>-</td></tr><tr><td>*</td></tr></table><p><b>value</b>: id: RNA</p></blockquote><blockquote><p><b>BC End Reason Extension</b></p><h3>Urls</h3><table class="grid"><tr><td>-</td></tr><tr><td>*</td></tr></table><p><b>value</b>: id: RNA</p><h3>Urls</h3><table class="grid"><tr><td>-</td></tr><tr><td>*</td></tr></table><p><b>value</b>: <span title="Codes: {http://example.org/status_reason_code PRAC}">PRAC</span></p></blockquote><p><b>BC Practitioner Date of Death Extension</b>: 2000-02-01</p><p><b>BC Birth Place Extension</b>: AL US </p><blockquote><p><b>BC Practitioner Disciplinary Actions</b></p><h3>Urls</h3><table class="grid"><tr><td>-</td></tr><tr><td>*</td></tr></table><p><b>value</b>: id: DISCIPLINARY_ACTION_TEST1</p><h3>Urls</h3><table class="grid"><tr><td>-</td></tr><tr><td>*</td></tr></table><p><b>value</b>: DISCIPLINARYACTION_DESCRIPTIONTXT_1</p><h3>Urls</h3><table class="grid"><tr><td>-</td></tr><tr><td>*</td></tr></table><p><b>value</b>: Nov. 20, 1950, 12:00:00 a.m. --&gt; 2020-01-01</p><h3>Urls</h3><table class="grid"><tr><td>-</td></tr><tr><td>*</td></tr></table><p><b>value</b>: 2020-01-01</p><h3>Urls</h3><table class="grid"><tr><td>-</td></tr><tr><td>*</td></tr></table><p><b>value</b>: true</p></blockquote><blockquote><p><b>BC Practitioner Confidentiality Extension</b></p><h3>Urls</h3><table class="grid"><tr><td>-</td></tr><tr><td>*</td></tr></table><p><b>value</b>: <span title="Codes: {http://terminology.hl7.org/CodeSystem/v3-Confidentiality N}">normal</span></p><h3>Urls</h3><table class="grid"><tr><td>-</td></tr><tr><td>*</td></tr></table><p><b>value</b>: 2000-01-01 --&gt; 2020-01-01</p></blockquote><blockquote><p><b>BC Notes</b></p><h3>Urls</h3><table class="grid"><tr><td>-</td></tr><tr><td>*</td></tr></table><p><b>value</b>: id: noteID1</p><h3>Urls</h3><table class="grid"><tr><td>-</td></tr><tr><td>*</td></tr></table><p><b>value</b>: Note text sample</p><h3>Urls</h3><table class="grid"><tr><td>-</td></tr><tr><td>*</td></tr></table><p><b>value</b>: 2000-01-01 --&gt; 2020-01-01</p></blockquote><blockquote><p><b>BC Practitioner Conditions</b></p><h3>Urls</h3><table class="grid"><tr><td>-</td></tr><tr><td>*</td></tr></table><p><b>value</b>: id: 23</p><h3>Urls</h3><table class="grid"><tr><td>-</td></tr><tr><td>*</td></tr></table><p><b>value</b>: 2000-01-01 --&gt; 2020-01-01</p><h3>Urls</h3><table class="grid"><tr><td>-</td></tr><tr><td>*</td></tr></table><p><b>value</b>: true</p><h3>Urls</h3><table class="grid"><tr><td>-</td></tr><tr><td>*</td></tr></table><p><b>value</b>: CONDITION_RESTRICTION_EXPLANATION TEXT</p><h3>Urls</h3><table class="grid"><tr><td>-</td></tr><tr><td>*</td></tr></table><p><b>value</b>: <span title="Codes: {http://example.org/condition_type_code LOC}">LOC</span></p></blockquote><blockquote><p><b>BC Practitioner to Practitioner Relationship</b></p><h3>Urls</h3><table class="grid"><tr><td>-</td></tr><tr><td>*</td></tr></table><p><b>value</b>: 2000-01-01 --&gt; 2020-01-01</p><h3>Urls</h3><table class="grid"><tr><td>-</td></tr><tr><td>*</td></tr></table><p><b>value</b>: <a href="Practitioner-Example-AddPractitioner-RelatedPractitioner.html">Generated Summary: id: 3DEGDIDERCHIDMAY22T02; 23</a></p><h3>Urls</h3><table class="grid"><tr><td>-</td></tr><tr><td>*</td></tr></table><p><b>value</b>: <span title="Codes: {http://example.org/provider_relationship_type_code LOC}">LOC</span></p></blockquote><p><b>identifier</b>: id: MD20180719V01</p><p><b>active</b>: true</p><p><b>name</b>: SONYA NAME PRSNSECONDGIVENNAMETXT NAME PRSNTHIRDGIVENNAMETXT KELASEY (OFFICIAL)</p><p><b>telecom</b>: ph: 2507654333(HOME), <a href="mailto:hey@day.com">hey@day.com</a></p><p><b>address</b>: 91 RD ADDRESS ADDRESSLINE2TXT ADDRESS ADDRESSLINE3TXT VICTORIA BC V8V8V8 (WORK)</p><p><b>gender</b>: female</p><p><b>birthDate</b>: 1951-11-12</p><h3>Qualifications</h3><table class="grid"><tr><td>-</td><td><b>Extension</b></td><td><b>Identifier</b></td><td><b>Code</b></td><td><b>Period</b></td><td><b>Issuer</b></td></tr><tr><td>*</td><td></td><td>id: CREDENTIAL_REGISTRATIONNUMBERTXT</td><td><span title="Codes: {https://fhir.infoway-inforoute.ca/CodeSystem/scpqual BD}">CREDENTIAL_CREDENTIALDESIGNATIONTXT</span></td><td>2000-01-01 --&gt; 2020-01-01</td><td><a name="qualificationOrganization"> </a><blockquote><p><b>name</b>: CREDENTIAL_CREDENTIALGRANTINGINSTTXT</p><p><b>address</b>: CALGARY AB CA </p></blockquote></td></tr></table></div>
        </text>
        <contained>
          <Organization>
            <id value="qualificationOrganization"/>
            <meta>
              <profile value="http://hl7.org/fhir/ca-bc/provider/StructureDefinition/bc-organization"/>
            </meta>
            <name value="CREDENTIAL_CREDENTIALGRANTINGINSTTXT"/>
            <address>
              <city value="CALGARY"/>
              <state value="AB"/>
              <country value="CA"/>
            </address>
          </Organization>
        </contained>
        <extension url="http://hl7.org/fhir/ca-bc/provider/StructureDefinition/bc-period-extension">
          <valuePeriod>
            <start value="2000-01-01"/>
            <end value="2020-01-01"/>
          </valuePeriod>
        </extension>
        <extension url="http://hl7.org/fhir/ca-bc/provider/StructureDefinition/bc-license-status-extension">
          <extension url="statusCode">
            <valueCodeableConcept>
              <coding>
                <system value="http://terminology.hl7.org/CodeSystem/v3-RoleStatus"/>
                <code value="active"/>
              </coding>
            </valueCodeableConcept>
          </extension>
          <extension url="period">
            <valuePeriod>
              <start value="2000-01-01"/>
              <end value="2020-01-01"/>
            </valuePeriod>
          </extension>
          <extension url="statusReasonCode">
            <valueCodeableConcept>
              <coding>
                <system value="http://example.org/status_reason_code"/>
                <code value="PRAC"/>
              </coding>
            </valueCodeableConcept>
          </extension>
          <extension url="custodianId">
            <valueIdentifier>
              <system value="urn:oid:2.16.840.1.113883.3.40.1.16"/>
              <value value="RNA"/>
            </valueIdentifier>
          </extension>
        </extension>
        <extension url="http://hl7.org/fhir/ca-bc/provider/StructureDefinition/bc-end-reason-extension">
          <extension url="custodianId">
            <valueIdentifier>
              <system value="urn:oid:2.16.840.1.113883.3.40.1.16"/>
              <value value="RNA"/>
            </valueIdentifier>
          </extension>
          <extension url="endReasonCode">
            <valueCodeableConcept>
              <coding>
                <system value="http://example.org/status_reason_code"/>
                <code value="PRAC"/>
              </coding>
            </valueCodeableConcept>
          </extension>
        </extension>
        <extension url="http://hl7.org/fhir/ca-bc/provider/StructureDefinition/bc-practitioner-deathdate-extension">
          <valueDateTime value="2000-02-01"/>
        </extension>
        <extension url="http://hl7.org/fhir/ca-bc/provider/StructureDefinition/bc-birthplace-extension">
          <valueAddress>
            <state value="AL"/>
            <country value="US"/>
          </valueAddress>
        </extension>
        <extension url="http://hl7.org/fhir/ca-bc/provider/StructureDefinition/bc-practitioner-disciplinary-action-extension">
          <extension url="identifier">
            <valueIdentifier>
              <system value="urn:oid:2.16.840.1.113883.3.40.1.4"/>
              <value value="DISCIPLINARY_ACTION_TEST1"/>
            </valueIdentifier>
          </extension>
          <extension url="description">
            <valueString value="DISCIPLINARYACTION_DESCRIPTIONTXT_1"/>
          </extension>
          <extension url="http://hl7.org/fhir/ca-bc/provider/StructureDefinition/bc-period-extension">
            <valuePeriod>
              <start value="1950-11-20T00:00:00-07:00"/>
              <end value="2020-01-01"/>
            </valuePeriod>
          </extension>
          <extension url="archiveDate">
            <valueDateTime value="2020-01-01"/>
          </extension>
          <extension url="displayFlag">
            <valueBoolean value="true"/>
          </extension>
        </extension>
        <extension url="http://hl7.org/fhir/ca-bc/provider/StructureDefinition/bc-practitioner-confidentiality-extension">
          <extension url="code">
            <valueCodeableConcept>
              <coding>
                <system value="http://terminology.hl7.org/CodeSystem/v3-Confidentiality"/>
                <code value="N"/>
              </coding>
            </valueCodeableConcept>
          </extension>
          <extension url="http://hl7.org/fhir/ca-bc/provider/StructureDefinition/bc-period-extension">
            <valuePeriod>
              <start value="2000-01-01"/>
              <end value="2020-01-01"/>
            </valuePeriod>
          </extension>
        </extension>
        <extension url="http://hl7.org/fhir/ca-bc/provider/StructureDefinition/bc-note-extension">
          <extension url="identifier">
            <valueIdentifier>
              <system value="urn:oid:2.16.840.1.113883.3.40.1.6"/>
              <value value="noteID1"/>
            </valueIdentifier>
          </extension>
          <extension url="text">
            <valueString value="Note text sample"/>
          </extension>
          <extension url="http://hl7.org/fhir/ca-bc/provider/StructureDefinition/bc-period-extension">
            <valuePeriod>
              <start value="2000-01-01"/>
              <end value="2020-01-01"/>
            </valuePeriod>
          </extension>
        </extension>
        <extension url="http://hl7.org/fhir/ca-bc/provider/StructureDefinition/bc-practitioner-condition-extension">
          <extension url="identifier">
            <valueIdentifier>
              <system value="urn:oid:2.16.840.1.113883.3.40.1.1"/>
              <value value="23"/>
            </valueIdentifier>
          </extension>
          <extension url="http://hl7.org/fhir/ca-bc/provider/StructureDefinition/bc-period-extension">
            <valuePeriod>
              <start value="2000-01-01"/>
              <end value="2020-01-01"/>
            </valuePeriod>
          </extension>
          <extension url="restriction">
            <valueBoolean value="true"/>
          </extension>
          <extension url="restrictionText">
            <valueString value="CONDITION_RESTRICTION_EXPLANATION TEXT"/>
          </extension>
          <extension url="code">
            <valueCodeableConcept>
              <coding>
                <system value="http://example.org/condition_type_code"/>
                <code value="LOC"/>
              </coding>
            </valueCodeableConcept>
          </extension>
        </extension>
        <extension url="http://hl7.org/fhir/ca-bc/provider/StructureDefinition/bc-practitioner-relationship-extension">
          <extension url="http://hl7.org/fhir/ca-bc/provider/StructureDefinition/bc-period-extension">
            <valuePeriod>
              <start value="2000-01-01"/>
              <end value="2020-01-01"/>
            </valuePeriod>
          </extension>
          <extension url="practitioner">
            <valueReference>
              <reference value="Practitioner/Example-AddPractitioner-RelatedPractitioner"/>
            </valueReference>
          </extension>
          <extension url="type">
            <valueCodeableConcept>
              <coding>
                <system value="http://example.org/provider_relationship_type_code"/>
                <code value="LOC"/>
              </coding>
            </valueCodeableConcept>
          </extension>
        </extension>
        <identifier>
          <system value="urn:oid:2.16.840.1.113883.3.40.2.4"/>
          <value value="MD20180719V01"/>
          <period>
            <start value="2000-01-01"/>
            <end value="2020-01-01"/>
          </period>
        </identifier>
        <active value="true"/>
        <name>
          <use value="official"/>
          <family value="KELASEY"/>
          <given value="SONYA"/>
          <given value="NAME PRSNSECONDGIVENNAMETXT"/>
          <given value="NAME PRSNTHIRDGIVENNAMETXT"/>
          <prefix value="PRSNPREFIX"/>
          <suffix value="PRSNSUFFIX"/>
          <period>
            <start value="2000-01-01"/>
            <end value="2020-01-01"/>
          </period>
        </name>
        <telecom>
          <system value="phone"/>
          <value value="2507654333"/>
          <use value="home"/>
          <period>
            <start value="2000-01-01"/>
            <end value="2020-01-01"/>
          </period>
        </telecom>
        <telecom>
          <system value="email"/>
          <value value="hey@day.com"/>
          <use value="work"/>
          <period>
            <start value="2000-01-01"/>
            <end value="2020-01-01"/>
          </period>
        </telecom>
        <address>
          <use value="work"/>
          <type value="postal"/>
          <line value="91 RD"/>
          <line value="ADDRESS ADDRESSLINE2TXT"/>
          <line value="ADDRESS ADDRESSLINE3TXT"/>
          <city value="VICTORIA"/>
          <state value="BC"/>
          <postalCode value="V8V8V8"/>
          <period>
            <start value="2000-01-01"/>
            <end value="2020-01-01"/>
          </period>
        </address>
        <gender value="female"/>
        <birthDate value="1951-11-12">
          <extension url="http://hl7.org/fhir/ca-bc/provider/StructureDefinition/bc-birthtime-extension">
            <valueDateTime value="1951-11-12T00:00:01-06:00"/>
          </extension>
        </birthDate>
        <qualification>
          <extension url="http://hl7.org/fhir/ca-bc/provider/StructureDefinition/bc-practitioner-qualification-issue-date-extension">
            <valueDateTime value="2001"/>
          </extension>
          <identifier>
            <system value="urn:oid:2.16.840.1.113883.3.40.1.2"/>
            <value value="CREDENTIAL_REGISTRATIONNUMBERTXT"/>
          </identifier>
          <code>
            <coding>
              <system value="https://fhir.infoway-inforoute.ca/CodeSystem/scpqual"/>
              <code value="BD"/>
            </coding>
            <text value="CREDENTIAL_CREDENTIALDESIGNATIONTXT"/>
          </code>
          <period>
            <start value="2000-01-01"/>
            <end value="2020-01-01"/>
          </period>
          <issuer>
            <reference value="#qualificationOrganization"/>
          </issuer>
        </qualification>
      </Practitioner>
    </resource>
    <request>
      <method value="POST"/>
      <url value="http://plr.moh.bc.ca/fhir/Practitioner"/>
    </request>
  </entry>
  <entry>
    <fullUrl value="http://plr.moh.bc.ca/fhir/PractitionerRole/12345"/>
    <resource>
      <PractitionerRole>
        <id value="Example-AddPractitioner-PractitionerRole"/>
        <meta>
          <profile value="http://hl7.org/fhir/ca-bc/provider/StructureDefinition/bc-practitioner-role"/>
        </meta>
        <text>
          <status value="generated"/><div xmlns="http://www.w3.org/1999/xhtml"><p><b>Generated Narrative</b></p><p><b>practitioner</b>: <a href="#Practitioner_Example-AddPractitioner-Practitioner">See above (Practitioner/Example-AddPractitioner-Practitioner)</a></p><p><b>organization</b>: <span>BC</span></p><p><b>code</b>: <span title="Codes: {https://fhir.infoway-inforoute.ca/CodeSystem/scptype MD}">MD</span></p><p><b>specialty</b>: <span title="Codes: {http://snomed.info/sct 419772000}">Family practice (qualifier value)</span></p><p><b>location</b>: <a href="Location-Example-AddPractitioner-WorkLocation.html">Generated Summary: id: 1; name: WORKLOCATIONDETAILS_WORKLOCATION NAME SAMPLE TEXT; <span title="Codes: {http://terminology.hl7.org/CodeSystem/v3-RoleCode HD}">Hemodialysis unit</span>; joe@gmail.com, Phone: 2509876555</a></p></div>
        </text>
        <practitioner>
          <reference value="Practitioner/Example-AddPractitioner-Practitioner"/>
        </practitioner>
        <organization>
          <display value="BC"/>
        </organization>
        <code>
          <coding>
            <system value="https://fhir.infoway-inforoute.ca/CodeSystem/scptype"/>
            <code value="MD"/>
          </coding>
        </code>
        <specialty>
          <extension url="http://hl7.org/fhir/ca-bc/provider/StructureDefinition/bc-period-extension">
            <valuePeriod>
              <start value="2000-01-01"/>
              <end value="2020-01-01"/>
            </valuePeriod>
          </extension>
          <extension url="http://hl7.org/fhir/ca-bc/provider/StructureDefinition/bc-end-reason-extension">
            <extension url="endReasonCode">
              <valueCodeableConcept>
                <coding>
                  <system value="http://example.org/status_reason_code"/>
                  <code value="PRAC"/>
                </coding>
              </valueCodeableConcept>
            </extension>
            <extension url="custodianId">
              <valueIdentifier>
                <system value="http://example.org/custodian-ids"/>
                <value value="123456679"/>
              </valueIdentifier>
            </extension>
          </extension>
          <coding>
            <system value="http://snomed.info/sct"/>
            <code value="419772000"/>
          </coding>
        </specialty>
        <location>
          <extension url="http://hl7.org/fhir/ca-bc/provider/StructureDefinition/bc-period-extension">
            <valuePeriod>
              <start value="2000-01-01"/>
              <end value="2020-01-01"/>
            </valuePeriod>
          </extension>
          <reference value="Location/Example-AddPractitioner-WorkLocation"/>
        </location>
      </PractitionerRole>
    </resource>
    <request>
      <method value="POST"/>
      <url value="http://plr.moh.bc.ca/fhir/PractitionerRole"/>
    </request>
  </entry>
</Bundle>